"rt","response","stimulus","participant_response","agent_decision","beads_shown","trial_type","trial_index","time_elapsed","internal_node_id","subject_id"
"3342.399999976158","2","

            <div style=""z-index: -1"">

            <img src=""img/bead_samples/7red.png""
             style=""position:absolute;
             top:55%;
             left:25%;
             transform: translate(-50%, -50%);
             height:400px;
             width:auto;
             ""/>

            <img src='img/jar_covered_opened.png'
            style=""position:absolute;
            z-index: -1;
            top:50%;
            left:50%;
            margin-top:-480px;
            margin-left:-300px;""/>

            <div style=""position:absolute;
             top:30%;
             left:70%;
             height: 300px;"">
            <img src=""img/faces/1.png""
             style=""position: relative;
             height:200px;
             width:auto""/>

            <img src=""img/agent_choices/10.png""
             style=""position: relative;
             top: 80px;
             left: -105px;
             transform: translate(-50%, -50%);""/>
             </div>

            </div>

            <div style=""width:200px;
            margin-bottom: 40px;
            margin-top: 20px;"">
            <p>Choose your confidence for the colour of the next bead:</p>
            <div style=""width:50px; float: left;"">
            <p><img src=""img/red_bead.png""/></p>
            </div>
            <div style=""width:50px; float: right;"">
            <p><img src=""img/green_bead.png""/></p>
            </div>
            </div>

            ","true","img/agent_choices/10.png","img/bead_samples/7red.png","html-slider-response","3165","155455","0.0-3165.0","JA23"
"4315.399999976158","72","

            <div style=""z-index: -1"">

            <img src=""img/bead_samples/3red.png""
             style=""position:absolute;
             top:55%;
             left:25%;
             transform: translate(-50%, -50%);
             height:400px;
             width:auto;
             ""/>

            <img src='img/jar_covered_opened.png'
            style=""position:absolute;
            z-index: -1;
            top:50%;
            left:50%;
            margin-top:-480px;
            margin-left:-300px;""/>

            <div style=""position:absolute;
             top:30%;
             left:70%;
             height: 300px;"">
            <img src=""img/faces/2.png""
             style=""position: relative;
             height:200px;
             width:auto""/>

            <img src=""img/agent_choices/50.png""
             style=""position: relative;
             top: 80px;
             left: -105px;
             transform: translate(-50%, -50%);""/>
             </div>

            </div>

            <div style=""width:200px;
            margin-bottom: 40px;
            margin-top: 20px;"">
            <p>Choose your confidence for the colour of the next bead:</p>
            <div style=""width:50px; float: left;"">
            <p><img src=""img/red_bead.png""/></p>
            </div>
            <div style=""width:50px; float: right;"">
            <p><img src=""img/green_bead.png""/></p>
            </div>
            </div>

            ","true","img/agent_choices/50.png","img/bead_samples/3red.png","html-slider-response","3695","173039","0.0-3695.0","JA23"
"4811.699999988079","45","

            <div style=""z-index: -1"">

            <img src=""img/bead_samples/4red.png""
             style=""position:absolute;
             top:55%;
             left:25%;
             transform: translate(-50%, -50%);
             height:400px;
             width:auto;
             ""/>

            <img src='img/jar_covered_opened.png'
            style=""position:absolute;
            z-index: -1;
            top:50%;
            left:50%;
            margin-top:-480px;
            margin-left:-300px;""/>

            <div style=""position:absolute;
             top:30%;
             left:70%;
             height: 300px;"">
            <img src=""img/faces/3.png""
             style=""position: relative;
             height:200px;
             width:auto""/>

            <img src=""img/agent_choices/30.png""
             style=""position: relative;
             top: 80px;
             left: -105px;
             transform: translate(-50%, -50%);""/>
             </div>

            </div>

            <div style=""width:200px;
            margin-bottom: 40px;
            margin-top: 20px;"">
            <p>Choose your confidence for the colour of the next bead:</p>
            <div style=""width:50px; float: left;"">
            <p><img src=""img/red_bead.png""/></p>
            </div>
            <div style=""width:50px; float: right;"">
            <p><img src=""img/green_bead.png""/></p>
            </div>
            </div>

            ","true","img/agent_choices/30.png","img/bead_samples/4red.png","html-slider-response","4225","191111","0.0-4225.0","JA23"
"3275.800000011921","24","

            <div style=""z-index: -1"">

            <img src=""img/bead_samples/6red.png""
             style=""position:absolute;
             top:55%;
             left:25%;
             transform: translate(-50%, -50%);
             height:400px;
             width:auto;
             ""/>

            <img src='img/jar_covered_opened.png'
            style=""position:absolute;
            z-index: -1;
            top:50%;
            left:50%;
            margin-top:-480px;
            margin-left:-300px;""/>

            <div style=""position:absolute;
             top:30%;
             left:70%;
             height: 300px;"">
            <img src=""img/faces/4.png""
             style=""position: relative;
             height:200px;
             width:auto""/>

            <img src=""img/agent_choices/95.png""
             style=""position: relative;
             top: 80px;
             left: -105px;
             transform: translate(-50%, -50%);""/>
             </div>

            </div>

            <div style=""width:200px;
            margin-bottom: 40px;
            margin-top: 20px;"">
            <p>Choose your confidence for the colour of the next bead:</p>
            <div style=""width:50px; float: left;"">
            <p><img src=""img/red_bead.png""/></p>
            </div>
            <div style=""width:50px; float: right;"">
            <p><img src=""img/green_bead.png""/></p>
            </div>
            </div>

            ","true","img/agent_choices/95.png","img/bead_samples/6red.png","html-slider-response","4755","207648","0.0-4755.0","JA23"
"5536.600000023842","92","

            <div style=""z-index: -1"">

            <img src=""img/bead_samples/1red.png""
             style=""position:absolute;
             top:55%;
             left:25%;
             transform: translate(-50%, -50%);
             height:400px;
             width:auto;
             ""/>

            <img src='img/jar_covered_opened.png'
            style=""position:absolute;
            z-index: -1;
            top:50%;
            left:50%;
            margin-top:-480px;
            margin-left:-300px;""/>

            <div style=""position:absolute;
             top:30%;
             left:70%;
             height: 300px;"">
            <img src=""img/faces/5.png""
             style=""position: relative;
             height:200px;
             width:auto""/>

            <img src=""img/agent_choices/50.png""
             style=""position: relative;
             top: 80px;
             left: -105px;
             transform: translate(-50%, -50%);""/>
             </div>

            </div>

            <div style=""width:200px;
            margin-bottom: 40px;
            margin-top: 20px;"">
            <p>Choose your confidence for the colour of the next bead:</p>
            <div style=""width:50px; float: left;"">
            <p><img src=""img/red_bead.png""/></p>
            </div>
            <div style=""width:50px; float: right;"">
            <p><img src=""img/green_bead.png""/></p>
            </div>
            </div>

            ","true","img/agent_choices/50.png","img/bead_samples/1red.png","html-slider-response","5285","226526","0.0-5285.0","JA23"
"8585.600000023842","64","

            <div style=""z-index: -1"">

            <img src=""img/bead_samples/3red.png""
             style=""position:absolute;
             top:55%;
             left:25%;
             transform: translate(-50%, -50%);
             height:400px;
             width:auto;
             ""/>

            <img src='img/jar_covered_opened.png'
            style=""position:absolute;
            z-index: -1;
            top:50%;
            left:50%;
            margin-top:-480px;
            margin-left:-300px;""/>

            <div style=""position:absolute;
             top:30%;
             left:70%;
             height: 300px;"">
            <img src=""img/faces/1.png""
             style=""position: relative;
             height:200px;
             width:auto""/>

            <img src=""img/agent_choices/10.png""
             style=""position: relative;
             top: 80px;
             left: -105px;
             transform: translate(-50%, -50%);""/>
             </div>

            </div>

            <div style=""width:200px;
            margin-bottom: 40px;
            margin-top: 20px;"">
            <p>Choose your confidence for the colour of the next bead:</p>
            <div style=""width:50px; float: left;"">
            <p><img src=""img/red_bead.png""/></p>
            </div>
            <div style=""width:50px; float: right;"">
            <p><img src=""img/green_bead.png""/></p>
            </div>
            </div>

            ","true","img/agent_choices/10.png","img/bead_samples/3red.png","html-slider-response","5557","249360","0.0-5557.0","JA23"
"4171.399999976158","40","

            <div style=""z-index: -1"">

            <img src=""img/bead_samples/5red.png""
             style=""position:absolute;
             top:55%;
             left:25%;
             transform: translate(-50%, -50%);
             height:400px;
             width:auto;
             ""/>

            <img src='img/jar_covered_opened.png'
            style=""position:absolute;
            z-index: -1;
            top:50%;
            left:50%;
            margin-top:-480px;
            margin-left:-300px;""/>

            <div style=""position:absolute;
             top:30%;
             left:70%;
             height: 300px;"">
            <img src=""img/faces/2.png""
             style=""position: relative;
             height:200px;
             width:auto""/>

            <img src=""img/agent_choices/45.png""
             style=""position: relative;
             top: 80px;
             left: -105px;
             transform: translate(-50%, -50%);""/>
             </div>

            </div>

            <div style=""width:200px;
            margin-bottom: 40px;
            margin-top: 20px;"">
            <p>Choose your confidence for the colour of the next bead:</p>
            <div style=""width:50px; float: left;"">
            <p><img src=""img/red_bead.png""/></p>
            </div>
            <div style=""width:50px; float: right;"">
            <p><img src=""img/green_bead.png""/></p>
            </div>
            </div>

            ","true","img/agent_choices/45.png","img/bead_samples/5red.png","html-slider-response","5826","259440","0.0-5826.0","JA23"
"5309.699999988079","72","

            <div style=""z-index: -1"">

            <img src=""img/bead_samples/3red.png""
             style=""position:absolute;
             top:55%;
             left:25%;
             transform: translate(-50%, -50%);
             height:400px;
             width:auto;
             ""/>

            <img src='img/jar_covered_opened.png'
            style=""position:absolute;
            z-index: -1;
            top:50%;
            left:50%;
            margin-top:-480px;
            margin-left:-300px;""/>

            <div style=""position:absolute;
             top:30%;
             left:70%;
             height: 300px;"">
            <img src=""img/faces/3.png""
             style=""position: relative;
             height:200px;
             width:auto""/>

            <img src=""img/agent_choices/75.png""
             style=""position: relative;
             top: 80px;
             left: -105px;
             transform: translate(-50%, -50%);""/>
             </div>

            </div>

            <div style=""width:200px;
            margin-bottom: 40px;
            margin-top: 20px;"">
            <p>Choose your confidence for the colour of the next bead:</p>
            <div style=""width:50px; float: left;"">
            <p><img src=""img/red_bead.png""/></p>
            </div>
            <div style=""width:50px; float: right;"">
            <p><img src=""img/green_bead.png""/></p>
            </div>
            </div>

            ","true","img/agent_choices/75.png","img/bead_samples/3red.png","html-slider-response","6095","270623","0.0-6095.0","JA23"
"5478.100000023842","21","

            <div style=""z-index: -1"">

            <img src=""img/bead_samples/6red.png""
             style=""position:absolute;
             top:55%;
             left:25%;
             transform: translate(-50%, -50%);
             height:400px;
             width:auto;
             ""/>

            <img src='img/jar_covered_opened.png'
            style=""position:absolute;
            z-index: -1;
            top:50%;
            left:50%;
            margin-top:-480px;
            margin-left:-300px;""/>

            <div style=""position:absolute;
             top:30%;
             left:70%;
             height: 300px;"">
            <img src=""img/faces/4.png""
             style=""position: relative;
             height:200px;
             width:auto""/>

            <img src=""img/agent_choices/25.png""
             style=""position: relative;
             top: 80px;
             left: -105px;
             transform: translate(-50%, -50%);""/>
             </div>

            </div>

            <div style=""width:200px;
            margin-bottom: 40px;
            margin-top: 20px;"">
            <p>Choose your confidence for the colour of the next bead:</p>
            <div style=""width:50px; float: left;"">
            <p><img src=""img/red_bead.png""/></p>
            </div>
            <div style=""width:50px; float: right;"">
            <p><img src=""img/green_bead.png""/></p>
            </div>
            </div>

            ","true","img/agent_choices/25.png","img/bead_samples/6red.png","html-slider-response","6364","281975","0.0-6364.0","JA23"
"6320","65","

            <div style=""z-index: -1"">

            <img src=""img/bead_samples/3red.png""
             style=""position:absolute;
             top:55%;
             left:25%;
             transform: translate(-50%, -50%);
             height:400px;
             width:auto;
             ""/>

            <img src='img/jar_covered_opened.png'
            style=""position:absolute;
            z-index: -1;
            top:50%;
            left:50%;
            margin-top:-480px;
            margin-left:-300px;""/>

            <div style=""position:absolute;
             top:30%;
             left:70%;
             height: 300px;"">
            <img src=""img/faces/5.png""
             style=""position: relative;
             height:200px;
             width:auto""/>

            <img src=""img/agent_choices/60.png""
             style=""position: relative;
             top: 80px;
             left: -105px;
             transform: translate(-50%, -50%);""/>
             </div>

            </div>

            <div style=""width:200px;
            margin-bottom: 40px;
            margin-top: 20px;"">
            <p>Choose your confidence for the colour of the next bead:</p>
            <div style=""width:50px; float: left;"">
            <p><img src=""img/red_bead.png""/></p>
            </div>
            <div style=""width:50px; float: right;"">
            <p><img src=""img/green_bead.png""/></p>
            </div>
            </div>

            ","true","img/agent_choices/60.png","img/bead_samples/3red.png","html-slider-response","6633","294271","0.0-6633.0","JA23"
"5713","66","

            <div style=""z-index: -1"">

            <img src=""img/bead_samples/4red.png""
             style=""position:absolute;
             top:55%;
             left:25%;
             transform: translate(-50%, -50%);
             height:400px;
             width:auto;
             ""/>

            <img src='img/jar_covered_opened.png'
            style=""position:absolute;
            z-index: -1;
            top:50%;
            left:50%;
            margin-top:-480px;
            margin-left:-300px;""/>

            <div style=""position:absolute;
             top:30%;
             left:70%;
             height: 300px;"">
            <img src=""img/faces/6.png""
             style=""position: relative;
             height:200px;
             width:auto""/>

            <img src=""img/agent_choices/45.png""
             style=""position: relative;
             top: 80px;
             left: -105px;
             transform: translate(-50%, -50%);""/>
             </div>

            </div>

            <div style=""width:200px;
            margin-bottom: 40px;
            margin-top: 20px;"">
            <p>Choose your confidence for the colour of the next bead:</p>
            <div style=""width:50px; float: left;"">
            <p><img src=""img/red_bead.png""/></p>
            </div>
            <div style=""width:50px; float: right;"">
            <p><img src=""img/green_bead.png""/></p>
            </div>
            </div>

            ","true","img/agent_choices/45.png","img/bead_samples/4red.png","html-slider-response","6902","305870","0.0-6902.0","JA23"
"7654.699999988079","44","

            <div style=""z-index: -1"">

            <img src=""img/bead_samples/4red.png""
             style=""position:absolute;
             top:55%;
             left:25%;
             transform: translate(-50%, -50%);
             height:400px;
             width:auto;
             ""/>

            <img src='img/jar_covered_opened.png'
            style=""position:absolute;
            z-index: -1;
            top:50%;
            left:50%;
            margin-top:-480px;
            margin-left:-300px;""/>

            <div style=""position:absolute;
             top:30%;
             left:70%;
             height: 300px;"">
            <img src=""img/faces/7.png""
             style=""position: relative;
             height:200px;
             width:auto""/>

            <img src=""img/agent_choices/20.png""
             style=""position: relative;
             top: 80px;
             left: -105px;
             transform: translate(-50%, -50%);""/>
             </div>

            </div>

            <div style=""width:200px;
            margin-bottom: 40px;
            margin-top: 20px;"">
            <p>Choose your confidence for the colour of the next bead:</p>
            <div style=""width:50px; float: left;"">
            <p><img src=""img/red_bead.png""/></p>
            </div>
            <div style=""width:50px; float: right;"">
            <p><img src=""img/green_bead.png""/></p>
            </div>
            </div>

            ","true","img/agent_choices/20.png","img/bead_samples/4red.png","html-slider-response","7171","319447","0.0-7171.0","JA23"
"9654.300000011921","94","

            <div style=""z-index: -1"">

            <img src=""img/bead_samples/1red.png""
             style=""position:absolute;
             top:55%;
             left:25%;
             transform: translate(-50%, -50%);
             height:400px;
             width:auto;
             ""/>

            <img src='img/jar_covered_opened.png'
            style=""position:absolute;
            z-index: -1;
            top:50%;
            left:50%;
            margin-top:-480px;
            margin-left:-300px;""/>

            <div style=""position:absolute;
             top:30%;
             left:70%;
             height: 300px;"">
            <img src=""img/faces/8.png""
             style=""position: relative;
             height:200px;
             width:auto""/>

            <img src=""img/agent_choices/40.png""
             style=""position: relative;
             top: 80px;
             left: -105px;
             transform: translate(-50%, -50%);""/>
             </div>

            </div>

            <div style=""width:200px;
            margin-bottom: 40px;
            margin-top: 20px;"">
            <p>Choose your confidence for the colour of the next bead:</p>
            <div style=""width:50px; float: left;"">
            <p><img src=""img/red_bead.png""/></p>
            </div>
            <div style=""width:50px; float: right;"">
            <p><img src=""img/green_bead.png""/></p>
            </div>
            </div>

            ","true","img/agent_choices/40.png","img/bead_samples/1red.png","html-slider-response","7440","335015","0.0-7440.0","JA23"
"3150.2999999523163","94","

            <div style=""z-index: -1"">

            <img src=""img/bead_samples/1red.png""
             style=""position:absolute;
             top:55%;
             left:25%;
             transform: translate(-50%, -50%);
             height:400px;
             width:auto;
             ""/>

            <img src='img/jar_covered_opened.png'
            style=""position:absolute;
            z-index: -1;
            top:50%;
            left:50%;
            margin-top:-480px;
            margin-left:-300px;""/>

            <div style=""position:absolute;
             top:30%;
             left:70%;
             height: 300px;"">
            <img src=""img/faces/9.png""
             style=""position: relative;
             height:200px;
             width:auto""/>

            <img src=""img/agent_choices/70.png""
             style=""position: relative;
             top: 80px;
             left: -105px;
             transform: translate(-50%, -50%);""/>
             </div>

            </div>

            <div style=""width:200px;
            margin-bottom: 40px;
            margin-top: 20px;"">
            <p>Choose your confidence for the colour of the next bead:</p>
            <div style=""width:50px; float: left;"">
            <p><img src=""img/red_bead.png""/></p>
            </div>
            <div style=""width:50px; float: right;"">
            <p><img src=""img/green_bead.png""/></p>
            </div>
            </div>

            ","true","img/agent_choices/70.png","img/bead_samples/1red.png","html-slider-response","7709","344080","0.0-7709.0","JA23"
"3884.900000035763","88","

            <div style=""z-index: -1"">

            <img src=""img/bead_samples/2red.png""
             style=""position:absolute;
             top:55%;
             left:25%;
             transform: translate(-50%, -50%);
             height:400px;
             width:auto;
             ""/>

            <img src='img/jar_covered_opened.png'
            style=""position:absolute;
            z-index: -1;
            top:50%;
            left:50%;
            margin-top:-480px;
            margin-left:-300px;""/>

            <div style=""position:absolute;
             top:30%;
             left:70%;
             height: 300px;"">
            <img src=""img/faces/10.png""
             style=""position: relative;
             height:200px;
             width:auto""/>

            <img src=""img/agent_choices/90.png""
             style=""position: relative;
             top: 80px;
             left: -105px;
             transform: translate(-50%, -50%);""/>
             </div>

            </div>

            <div style=""width:200px;
            margin-bottom: 40px;
            margin-top: 20px;"">
            <p>Choose your confidence for the colour of the next bead:</p>
            <div style=""width:50px; float: left;"">
            <p><img src=""img/red_bead.png""/></p>
            </div>
            <div style=""width:50px; float: right;"">
            <p><img src=""img/green_bead.png""/></p>
            </div>
            </div>

            ","true","img/agent_choices/90.png","img/bead_samples/2red.png","html-slider-response","7978","353943","0.0-7978.0","JA23"
"2984","10","

            <div style=""z-index: -1"">

            <img src=""img/bead_samples/7red.png""
             style=""position:absolute;
             top:55%;
             left:25%;
             transform: translate(-50%, -50%);
             height:400px;
             width:auto;
             ""/>

            <img src='img/jar_covered_opened.png'
            style=""position:absolute;
            z-index: -1;
            top:50%;
            left:50%;
            margin-top:-480px;
            margin-left:-300px;""/>

            <div style=""position:absolute;
             top:30%;
             left:70%;
             height: 300px;"">
            <img src=""img/faces/11.png""
             style=""position: relative;
             height:200px;
             width:auto""/>

            <img src=""img/agent_choices/5.png""
             style=""position: relative;
             top: 80px;
             left: -105px;
             transform: translate(-50%, -50%);""/>
             </div>

            </div>

            <div style=""width:200px;
            margin-bottom: 40px;
            margin-top: 20px;"">
            <p>Choose your confidence for the colour of the next bead:</p>
            <div style=""width:50px; float: left;"">
            <p><img src=""img/red_bead.png""/></p>
            </div>
            <div style=""width:50px; float: right;"">
            <p><img src=""img/green_bead.png""/></p>
            </div>
            </div>

            ","true","img/agent_choices/5.png","img/bead_samples/7red.png","html-slider-response","8247","362991","0.0-8247.0","JA23"
"4922.699999988079","16","

            <div style=""z-index: -1"">

            <img src=""img/bead_samples/6red.png""
             style=""position:absolute;
             top:55%;
             left:25%;
             transform: translate(-50%, -50%);
             height:400px;
             width:auto;
             ""/>

            <img src='img/jar_covered_opened.png'
            style=""position:absolute;
            z-index: -1;
            top:50%;
            left:50%;
            margin-top:-480px;
            margin-left:-300px;""/>

            <div style=""position:absolute;
             top:30%;
             left:70%;
             height: 300px;"">
            <img src=""img/faces/12.png""
             style=""position: relative;
             height:200px;
             width:auto""/>

            <img src=""img/agent_choices/50.png""
             style=""position: relative;
             top: 80px;
             left: -105px;
             transform: translate(-50%, -50%);""/>
             </div>

            </div>

            <div style=""width:200px;
            margin-bottom: 40px;
            margin-top: 20px;"">
            <p>Choose your confidence for the colour of the next bead:</p>
            <div style=""width:50px; float: left;"">
            <p><img src=""img/red_bead.png""/></p>
            </div>
            <div style=""width:50px; float: right;"">
            <p><img src=""img/green_bead.png""/></p>
            </div>
            </div>

            ","true","img/agent_choices/50.png","img/bead_samples/6red.png","html-slider-response","8516","373863","0.0-8516.0","JA23"
"3346.399999976158","10","

            <div style=""z-index: -1"">

            <img src=""img/bead_samples/7red.png""
             style=""position:absolute;
             top:55%;
             left:25%;
             transform: translate(-50%, -50%);
             height:400px;
             width:auto;
             ""/>

            <img src='img/jar_covered_opened.png'
            style=""position:absolute;
            z-index: -1;
            top:50%;
            left:50%;
            margin-top:-480px;
            margin-left:-300px;""/>

            <div style=""position:absolute;
             top:30%;
             left:70%;
             height: 300px;"">
            <img src=""img/faces/13.png""
             style=""position: relative;
             height:200px;
             width:auto""/>

            <img src=""img/agent_choices/5.png""
             style=""position: relative;
             top: 80px;
             left: -105px;
             transform: translate(-50%, -50%);""/>
             </div>

            </div>

            <div style=""width:200px;
            margin-bottom: 40px;
            margin-top: 20px;"">
            <p>Choose your confidence for the colour of the next bead:</p>
            <div style=""width:50px; float: left;"">
            <p><img src=""img/red_bead.png""/></p>
            </div>
            <div style=""width:50px; float: right;"">
            <p><img src=""img/green_bead.png""/></p>
            </div>
            </div>

            ","true","img/agent_choices/5.png","img/bead_samples/7red.png","html-slider-response","8785","383207","0.0-8785.0","JA23"
"7197.899999976158","59","

            <div style=""z-index: -1"">

            <img src=""img/bead_samples/3red.png""
             style=""position:absolute;
             top:55%;
             left:25%;
             transform: translate(-50%, -50%);
             height:400px;
             width:auto;
             ""/>

            <img src='img/jar_covered_opened.png'
            style=""position:absolute;
            z-index: -1;
            top:50%;
            left:50%;
            margin-top:-480px;
            margin-left:-300px;""/>

            <div style=""position:absolute;
             top:30%;
             left:70%;
             height: 300px;"">
            <img src=""img/faces/14.png""
             style=""position: relative;
             height:200px;
             width:auto""/>

            <img src=""img/agent_choices/80.png""
             style=""position: relative;
             top: 80px;
             left: -105px;
             transform: translate(-50%, -50%);""/>
             </div>

            </div>

            <div style=""width:200px;
            margin-bottom: 40px;
            margin-top: 20px;"">
            <p>Choose your confidence for the colour of the next bead:</p>
            <div style=""width:50px; float: left;"">
            <p><img src=""img/red_bead.png""/></p>
            </div>
            <div style=""width:50px; float: right;"">
            <p><img src=""img/green_bead.png""/></p>
            </div>
            </div>

            ","true","img/agent_choices/80.png","img/bead_samples/3red.png","html-slider-response","9054","396385","0.0-9054.0","JA23"
"4615.800000011921","84","

            <div style=""z-index: -1"">

            <img src=""img/bead_samples/2red.png""
             style=""position:absolute;
             top:55%;
             left:25%;
             transform: translate(-50%, -50%);
             height:400px;
             width:auto;
             ""/>

            <img src='img/jar_covered_opened.png'
            style=""position:absolute;
            z-index: -1;
            top:50%;
            left:50%;
            margin-top:-480px;
            margin-left:-300px;""/>

            <div style=""position:absolute;
             top:30%;
             left:70%;
             height: 300px;"">
            <img src=""img/faces/15.png""
             style=""position: relative;
             height:200px;
             width:auto""/>

            <img src=""img/agent_choices/55.png""
             style=""position: relative;
             top: 80px;
             left: -105px;
             transform: translate(-50%, -50%);""/>
             </div>

            </div>

            <div style=""width:200px;
            margin-bottom: 40px;
            margin-top: 20px;"">
            <p>Choose your confidence for the colour of the next bead:</p>
            <div style=""width:50px; float: left;"">
            <p><img src=""img/red_bead.png""/></p>
            </div>
            <div style=""width:50px; float: right;"">
            <p><img src=""img/green_bead.png""/></p>
            </div>
            </div>

            ","true","img/agent_choices/55.png","img/bead_samples/2red.png","html-slider-response","9323","406871","0.0-9323.0","JA23"
"5472.800000011921","21","

            <div style=""z-index: -1"">

            <img src=""img/bead_samples/6red.png""
             style=""position:absolute;
             top:55%;
             left:25%;
             transform: translate(-50%, -50%);
             height:400px;
             width:auto;
             ""/>

            <img src='img/jar_covered_opened.png'
            style=""position:absolute;
            z-index: -1;
            top:50%;
            left:50%;
            margin-top:-480px;
            margin-left:-300px;""/>

            <div style=""position:absolute;
             top:30%;
             left:70%;
             height: 300px;"">
            <img src=""img/faces/16.png""
             style=""position: relative;
             height:200px;
             width:auto""/>

            <img src=""img/agent_choices/10.png""
             style=""position: relative;
             top: 80px;
             left: -105px;
             transform: translate(-50%, -50%);""/>
             </div>

            </div>

            <div style=""width:200px;
            margin-bottom: 40px;
            margin-top: 20px;"">
            <p>Choose your confidence for the colour of the next bead:</p>
            <div style=""width:50px; float: left;"">
            <p><img src=""img/red_bead.png""/></p>
            </div>
            <div style=""width:50px; float: right;"">
            <p><img src=""img/green_bead.png""/></p>
            </div>
            </div>

            ","true","img/agent_choices/10.png","img/bead_samples/6red.png","html-slider-response","9592","418248","0.0-9592.0","JA23"
"2944.699999988079","9","

            <div style=""z-index: -1"">

            <img src=""img/bead_samples/7red.png""
             style=""position:absolute;
             top:55%;
             left:25%;
             transform: translate(-50%, -50%);
             height:400px;
             width:auto;
             ""/>

            <img src='img/jar_covered_opened.png'
            style=""position:absolute;
            z-index: -1;
            top:50%;
            left:50%;
            margin-top:-480px;
            margin-left:-300px;""/>

            <div style=""position:absolute;
             top:30%;
             left:70%;
             height: 300px;"">
            <img src=""img/faces/17.png""
             style=""position: relative;
             height:200px;
             width:auto""/>

            <img src=""img/agent_choices/10.png""
             style=""position: relative;
             top: 80px;
             left: -105px;
             transform: translate(-50%, -50%);""/>
             </div>

            </div>

            <div style=""width:200px;
            margin-bottom: 40px;
            margin-top: 20px;"">
            <p>Choose your confidence for the colour of the next bead:</p>
            <div style=""width:50px; float: left;"">
            <p><img src=""img/red_bead.png""/></p>
            </div>
            <div style=""width:50px; float: right;"">
            <p><img src=""img/green_bead.png""/></p>
            </div>
            </div>

            ","true","img/agent_choices/10.png","img/bead_samples/7red.png","html-slider-response","9861","427151","0.0-9861.0","JA23"
"2746.099999964237","87","

            <div style=""z-index: -1"">

            <img src=""img/bead_samples/3red.png""
             style=""position:absolute;
             top:55%;
             left:25%;
             transform: translate(-50%, -50%);
             height:400px;
             width:auto;
             ""/>

            <img src='img/jar_covered_opened.png'
            style=""position:absolute;
            z-index: -1;
            top:50%;
            left:50%;
            margin-top:-480px;
            margin-left:-300px;""/>

            <div style=""position:absolute;
             top:30%;
             left:70%;
             height: 300px;"">
            <img src=""img/faces/18.png""
             style=""position: relative;
             height:200px;
             width:auto""/>

            <img src=""img/agent_choices/90.png""
             style=""position: relative;
             top: 80px;
             left: -105px;
             transform: translate(-50%, -50%);""/>
             </div>

            </div>

            <div style=""width:200px;
            margin-bottom: 40px;
            margin-top: 20px;"">
            <p>Choose your confidence for the colour of the next bead:</p>
            <div style=""width:50px; float: left;"">
            <p><img src=""img/red_bead.png""/></p>
            </div>
            <div style=""width:50px; float: right;"">
            <p><img src=""img/green_bead.png""/></p>
            </div>
            </div>

            ","true","img/agent_choices/90.png","img/bead_samples/3red.png","html-slider-response","10130","435855","0.0-10130.0","JA23"
"6221.699999988079","27","

            <div style=""z-index: -1"">

            <img src=""img/bead_samples/5red.png""
             style=""position:absolute;
             top:55%;
             left:25%;
             transform: translate(-50%, -50%);
             height:400px;
             width:auto;
             ""/>

            <img src='img/jar_covered_opened.png'
            style=""position:absolute;
            z-index: -1;
            top:50%;
            left:50%;
            margin-top:-480px;
            margin-left:-300px;""/>

            <div style=""position:absolute;
             top:30%;
             left:70%;
             height: 300px;"">
            <img src=""img/faces/19.png""
             style=""position: relative;
             height:200px;
             width:auto""/>

            <img src=""img/agent_choices/25.png""
             style=""position: relative;
             top: 80px;
             left: -105px;
             transform: translate(-50%, -50%);""/>
             </div>

            </div>

            <div style=""width:200px;
            margin-bottom: 40px;
            margin-top: 20px;"">
            <p>Choose your confidence for the colour of the next bead:</p>
            <div style=""width:50px; float: left;"">
            <p><img src=""img/red_bead.png""/></p>
            </div>
            <div style=""width:50px; float: right;"">
            <p><img src=""img/green_bead.png""/></p>
            </div>
            </div>

            ","true","img/agent_choices/25.png","img/bead_samples/5red.png","html-slider-response","10399","447935","0.0-10399.0","JA23"
"3027.600000023842","86","

            <div style=""z-index: -1"">

            <img src=""img/bead_samples/2red.png""
             style=""position:absolute;
             top:55%;
             left:25%;
             transform: translate(-50%, -50%);
             height:400px;
             width:auto;
             ""/>

            <img src='img/jar_covered_opened.png'
            style=""position:absolute;
            z-index: -1;
            top:50%;
            left:50%;
            margin-top:-480px;
            margin-left:-300px;""/>

            <div style=""position:absolute;
             top:30%;
             left:70%;
             height: 300px;"">
            <img src=""img/faces/20.png""
             style=""position: relative;
             height:200px;
             width:auto""/>

            <img src=""img/agent_choices/85.png""
             style=""position: relative;
             top: 80px;
             left: -105px;
             transform: translate(-50%, -50%);""/>
             </div>

            </div>

            <div style=""width:200px;
            margin-bottom: 40px;
            margin-top: 20px;"">
            <p>Choose your confidence for the colour of the next bead:</p>
            <div style=""width:50px; float: left;"">
            <p><img src=""img/red_bead.png""/></p>
            </div>
            <div style=""width:50px; float: right;"">
            <p><img src=""img/green_bead.png""/></p>
            </div>
            </div>

            ","true","img/agent_choices/85.png","img/bead_samples/2red.png","html-slider-response","10668","456964","0.0-10668.0","JA23"
"2356.600000023842","32","

            <div style=""z-index: -1"">

            <img src=""img/bead_samples/5red.png""
             style=""position:absolute;
             top:55%;
             left:25%;
             transform: translate(-50%, -50%);
             height:400px;
             width:auto;
             ""/>

            <img src='img/jar_covered_opened.png'
            style=""position:absolute;
            z-index: -1;
            top:50%;
            left:50%;
            margin-top:-480px;
            margin-left:-300px;""/>

            <div style=""position:absolute;
             top:30%;
             left:70%;
             height: 300px;"">
            <img src=""img/faces/1.png""
             style=""position: relative;
             height:200px;
             width:auto""/>

            <img src=""img/agent_choices/55.png""
             style=""position: relative;
             top: 80px;
             left: -105px;
             transform: translate(-50%, -50%);""/>
             </div>

            </div>

            <div style=""width:200px;
            margin-bottom: 40px;
            margin-top: 20px;"">
            <p>Choose your confidence for the colour of the next bead:</p>
            <div style=""width:50px; float: left;"">
            <p><img src=""img/red_bead.png""/></p>
            </div>
            <div style=""width:50px; float: right;"">
            <p><img src=""img/green_bead.png""/></p>
            </div>
            </div>

            ","true","img/agent_choices/55.png","img/bead_samples/5red.png","html-slider-response","10937","465271","0.0-10937.0","JA23"
"2686.399999976158","74","

            <div style=""z-index: -1"">

            <img src=""img/bead_samples/3red.png""
             style=""position:absolute;
             top:55%;
             left:25%;
             transform: translate(-50%, -50%);
             height:400px;
             width:auto;
             ""/>

            <img src='img/jar_covered_opened.png'
            style=""position:absolute;
            z-index: -1;
            top:50%;
            left:50%;
            margin-top:-480px;
            margin-left:-300px;""/>

            <div style=""position:absolute;
             top:30%;
             left:70%;
             height: 300px;"">
            <img src=""img/faces/2.png""
             style=""position: relative;
             height:200px;
             width:auto""/>

            <img src=""img/agent_choices/70.png""
             style=""position: relative;
             top: 80px;
             left: -105px;
             transform: translate(-50%, -50%);""/>
             </div>

            </div>

            <div style=""width:200px;
            margin-bottom: 40px;
            margin-top: 20px;"">
            <p>Choose your confidence for the colour of the next bead:</p>
            <div style=""width:50px; float: left;"">
            <p><img src=""img/red_bead.png""/></p>
            </div>
            <div style=""width:50px; float: right;"">
            <p><img src=""img/green_bead.png""/></p>
            </div>
            </div>

            ","true","img/agent_choices/70.png","img/bead_samples/3red.png","html-slider-response","11206","473943","0.0-11206.0","JA23"
"5108.400000035763","95","

            <div style=""z-index: -1"">

            <img src=""img/bead_samples/1red.png""
             style=""position:absolute;
             top:55%;
             left:25%;
             transform: translate(-50%, -50%);
             height:400px;
             width:auto;
             ""/>

            <img src='img/jar_covered_opened.png'
            style=""position:absolute;
            z-index: -1;
            top:50%;
            left:50%;
            margin-top:-480px;
            margin-left:-300px;""/>

            <div style=""position:absolute;
             top:30%;
             left:70%;
             height: 300px;"">
            <img src=""img/faces/3.png""
             style=""position: relative;
             height:200px;
             width:auto""/>

            <img src=""img/agent_choices/90.png""
             style=""position: relative;
             top: 80px;
             left: -105px;
             transform: translate(-50%, -50%);""/>
             </div>

            </div>

            <div style=""width:200px;
            margin-bottom: 40px;
            margin-top: 20px;"">
            <p>Choose your confidence for the colour of the next bead:</p>
            <div style=""width:50px; float: left;"">
            <p><img src=""img/red_bead.png""/></p>
            </div>
            <div style=""width:50px; float: right;"">
            <p><img src=""img/green_bead.png""/></p>
            </div>
            </div>

            ","true","img/agent_choices/90.png","img/bead_samples/1red.png","html-slider-response","11475","485095","0.0-11475.0","JA23"
"3988.7000000476837","87","

            <div style=""z-index: -1"">

            <img src=""img/bead_samples/3red.png""
             style=""position:absolute;
             top:55%;
             left:25%;
             transform: translate(-50%, -50%);
             height:400px;
             width:auto;
             ""/>

            <img src='img/jar_covered_opened.png'
            style=""position:absolute;
            z-index: -1;
            top:50%;
            left:50%;
            margin-top:-480px;
            margin-left:-300px;""/>

            <div style=""position:absolute;
             top:30%;
             left:70%;
             height: 300px;"">
            <img src=""img/faces/4.png""
             style=""position: relative;
             height:200px;
             width:auto""/>

            <img src=""img/agent_choices/65.png""
             style=""position: relative;
             top: 80px;
             left: -105px;
             transform: translate(-50%, -50%);""/>
             </div>

            </div>

            <div style=""width:200px;
            margin-bottom: 40px;
            margin-top: 20px;"">
            <p>Choose your confidence for the colour of the next bead:</p>
            <div style=""width:50px; float: left;"">
            <p><img src=""img/red_bead.png""/></p>
            </div>
            <div style=""width:50px; float: right;"">
            <p><img src=""img/green_bead.png""/></p>
            </div>
            </div>

            ","true","img/agent_choices/65.png","img/bead_samples/3red.png","html-slider-response","11744","495095","0.0-11744.0","JA23"
"2743.5","13","

            <div style=""z-index: -1"">

            <img src=""img/bead_samples/7red.png""
             style=""position:absolute;
             top:55%;
             left:25%;
             transform: translate(-50%, -50%);
             height:400px;
             width:auto;
             ""/>

            <img src='img/jar_covered_opened.png'
            style=""position:absolute;
            z-index: -1;
            top:50%;
            left:50%;
            margin-top:-480px;
            margin-left:-300px;""/>

            <div style=""position:absolute;
             top:30%;
             left:70%;
             height: 300px;"">
            <img src=""img/faces/5.png""
             style=""position: relative;
             height:200px;
             width:auto""/>

            <img src=""img/agent_choices/5.png""
             style=""position: relative;
             top: 80px;
             left: -105px;
             transform: translate(-50%, -50%);""/>
             </div>

            </div>

            <div style=""width:200px;
            margin-bottom: 40px;
            margin-top: 20px;"">
            <p>Choose your confidence for the colour of the next bead:</p>
            <div style=""width:50px; float: left;"">
            <p><img src=""img/red_bead.png""/></p>
            </div>
            <div style=""width:50px; float: right;"">
            <p><img src=""img/green_bead.png""/></p>
            </div>
            </div>

            ","true","img/agent_choices/5.png","img/bead_samples/7red.png","html-slider-response","12013","503839","0.0-12013.0","JA23"
"4385.199999988079","87","

            <div style=""z-index: -1"">

            <img src=""img/bead_samples/1red.png""
             style=""position:absolute;
             top:55%;
             left:25%;
             transform: translate(-50%, -50%);
             height:400px;
             width:auto;
             ""/>

            <img src='img/jar_covered_opened.png'
            style=""position:absolute;
            z-index: -1;
            top:50%;
            left:50%;
            margin-top:-480px;
            margin-left:-300px;""/>

            <div style=""position:absolute;
             top:30%;
             left:70%;
             height: 300px;"">
            <img src=""img/faces/6.png""
             style=""position: relative;
             height:200px;
             width:auto""/>

            <img src=""img/agent_choices/80.png""
             style=""position: relative;
             top: 80px;
             left: -105px;
             transform: translate(-50%, -50%);""/>
             </div>

            </div>

            <div style=""width:200px;
            margin-bottom: 40px;
            margin-top: 20px;"">
            <p>Choose your confidence for the colour of the next bead:</p>
            <div style=""width:50px; float: left;"">
            <p><img src=""img/red_bead.png""/></p>
            </div>
            <div style=""width:50px; float: right;"">
            <p><img src=""img/green_bead.png""/></p>
            </div>
            </div>

            ","true","img/agent_choices/80.png","img/bead_samples/1red.png","html-slider-response","12282","514151","0.0-12282.0","JA23"
"3255.100000023842","33","

            <div style=""z-index: -1"">

            <img src=""img/bead_samples/5red.png""
             style=""position:absolute;
             top:55%;
             left:25%;
             transform: translate(-50%, -50%);
             height:400px;
             width:auto;
             ""/>

            <img src='img/jar_covered_opened.png'
            style=""position:absolute;
            z-index: -1;
            top:50%;
            left:50%;
            margin-top:-480px;
            margin-left:-300px;""/>

            <div style=""position:absolute;
             top:30%;
             left:70%;
             height: 300px;"">
            <img src=""img/faces/7.png""
             style=""position: relative;
             height:200px;
             width:auto""/>

            <img src=""img/agent_choices/5.png""
             style=""position: relative;
             top: 80px;
             left: -105px;
             transform: translate(-50%, -50%);""/>
             </div>

            </div>

            <div style=""width:200px;
            margin-bottom: 40px;
            margin-top: 20px;"">
            <p>Choose your confidence for the colour of the next bead:</p>
            <div style=""width:50px; float: left;"">
            <p><img src=""img/red_bead.png""/></p>
            </div>
            <div style=""width:50px; float: right;"">
            <p><img src=""img/green_bead.png""/></p>
            </div>
            </div>

            ","true","img/agent_choices/5.png","img/bead_samples/5red.png","html-slider-response","12551","523319","0.0-12551.0","JA23"
"2236","20","

            <div style=""z-index: -1"">

            <img src=""img/bead_samples/6red.png""
             style=""position:absolute;
             top:55%;
             left:25%;
             transform: translate(-50%, -50%);
             height:400px;
             width:auto;
             ""/>

            <img src='img/jar_covered_opened.png'
            style=""position:absolute;
            z-index: -1;
            top:50%;
            left:50%;
            margin-top:-480px;
            margin-left:-300px;""/>

            <div style=""position:absolute;
             top:30%;
             left:70%;
             height: 300px;"">
            <img src=""img/faces/8.png""
             style=""position: relative;
             height:200px;
             width:auto""/>

            <img src=""img/agent_choices/35.png""
             style=""position: relative;
             top: 80px;
             left: -105px;
             transform: translate(-50%, -50%);""/>
             </div>

            </div>

            <div style=""width:200px;
            margin-bottom: 40px;
            margin-top: 20px;"">
            <p>Choose your confidence for the colour of the next bead:</p>
            <div style=""width:50px; float: left;"">
            <p><img src=""img/red_bead.png""/></p>
            </div>
            <div style=""width:50px; float: right;"">
            <p><img src=""img/green_bead.png""/></p>
            </div>
            </div>

            ","true","img/agent_choices/35.png","img/bead_samples/6red.png","html-slider-response","12820","531582","0.0-12820.0","JA23"
"5267.199999988079","29","

            <div style=""z-index: -1"">

            <img src=""img/bead_samples/5red.png""
             style=""position:absolute;
             top:55%;
             left:25%;
             transform: translate(-50%, -50%);
             height:400px;
             width:auto;
             ""/>

            <img src='img/jar_covered_opened.png'
            style=""position:absolute;
            z-index: -1;
            top:50%;
            left:50%;
            margin-top:-480px;
            margin-left:-300px;""/>

            <div style=""position:absolute;
             top:30%;
             left:70%;
             height: 300px;"">
            <img src=""img/faces/9.png""
             style=""position: relative;
             height:200px;
             width:auto""/>

            <img src=""img/agent_choices/45.png""
             style=""position: relative;
             top: 80px;
             left: -105px;
             transform: translate(-50%, -50%);""/>
             </div>

            </div>

            <div style=""width:200px;
            margin-bottom: 40px;
            margin-top: 20px;"">
            <p>Choose your confidence for the colour of the next bead:</p>
            <div style=""width:50px; float: left;"">
            <p><img src=""img/red_bead.png""/></p>
            </div>
            <div style=""width:50px; float: right;"">
            <p><img src=""img/green_bead.png""/></p>
            </div>
            </div>

            ","true","img/agent_choices/45.png","img/bead_samples/5red.png","html-slider-response","13089","542985","0.0-13089.0","JA23"
"5064.399999976158","21","

            <div style=""z-index: -1"">

            <img src=""img/bead_samples/5red.png""
             style=""position:absolute;
             top:55%;
             left:25%;
             transform: translate(-50%, -50%);
             height:400px;
             width:auto;
             ""/>

            <img src='img/jar_covered_opened.png'
            style=""position:absolute;
            z-index: -1;
            top:50%;
            left:50%;
            margin-top:-480px;
            margin-left:-300px;""/>

            <div style=""position:absolute;
             top:30%;
             left:70%;
             height: 300px;"">
            <img src=""img/faces/10.png""
             style=""position: relative;
             height:200px;
             width:auto""/>

            <img src=""img/agent_choices/5.png""
             style=""position: relative;
             top: 80px;
             left: -105px;
             transform: translate(-50%, -50%);""/>
             </div>

            </div>

            <div style=""width:200px;
            margin-bottom: 40px;
            margin-top: 20px;"">
            <p>Choose your confidence for the colour of the next bead:</p>
            <div style=""width:50px; float: left;"">
            <p><img src=""img/red_bead.png""/></p>
            </div>
            <div style=""width:50px; float: right;"">
            <p><img src=""img/green_bead.png""/></p>
            </div>
            </div>

            ","true","img/agent_choices/5.png","img/bead_samples/5red.png","html-slider-response","13358","554191","0.0-13358.0","JA23"
"3399.099999964237","7","

            <div style=""z-index: -1"">

            <img src=""img/bead_samples/7red.png""
             style=""position:absolute;
             top:55%;
             left:25%;
             transform: translate(-50%, -50%);
             height:400px;
             width:auto;
             ""/>

            <img src='img/jar_covered_opened.png'
            style=""position:absolute;
            z-index: -1;
            top:50%;
            left:50%;
            margin-top:-480px;
            margin-left:-300px;""/>

            <div style=""position:absolute;
             top:30%;
             left:70%;
             height: 300px;"">
            <img src=""img/faces/11.png""
             style=""position: relative;
             height:200px;
             width:auto""/>

            <img src=""img/agent_choices/5.png""
             style=""position: relative;
             top: 80px;
             left: -105px;
             transform: translate(-50%, -50%);""/>
             </div>

            </div>

            <div style=""width:200px;
            margin-bottom: 40px;
            margin-top: 20px;"">
            <p>Choose your confidence for the colour of the next bead:</p>
            <div style=""width:50px; float: left;"">
            <p><img src=""img/red_bead.png""/></p>
            </div>
            <div style=""width:50px; float: right;"">
            <p><img src=""img/green_bead.png""/></p>
            </div>
            </div>

            ","true","img/agent_choices/5.png","img/bead_samples/7red.png","html-slider-response","13627","563639","0.0-13627.0","JA23"
"4964.800000011921","85","

            <div style=""z-index: -1"">

            <img src=""img/bead_samples/2red.png""
             style=""position:absolute;
             top:55%;
             left:25%;
             transform: translate(-50%, -50%);
             height:400px;
             width:auto;
             ""/>

            <img src='img/jar_covered_opened.png'
            style=""position:absolute;
            z-index: -1;
            top:50%;
            left:50%;
            margin-top:-480px;
            margin-left:-300px;""/>

            <div style=""position:absolute;
             top:30%;
             left:70%;
             height: 300px;"">
            <img src=""img/faces/12.png""
             style=""position: relative;
             height:200px;
             width:auto""/>

            <img src=""img/agent_choices/65.png""
             style=""position: relative;
             top: 80px;
             left: -105px;
             transform: translate(-50%, -50%);""/>
             </div>

            </div>

            <div style=""width:200px;
            margin-bottom: 40px;
            margin-top: 20px;"">
            <p>Choose your confidence for the colour of the next bead:</p>
            <div style=""width:50px; float: left;"">
            <p><img src=""img/red_bead.png""/></p>
            </div>
            <div style=""width:50px; float: right;"">
            <p><img src=""img/green_bead.png""/></p>
            </div>
            </div>

            ","true","img/agent_choices/65.png","img/bead_samples/2red.png","html-slider-response","13896","574695","0.0-13896.0","JA23"
"3713.199999988079","48","

            <div style=""z-index: -1"">

            <img src=""img/bead_samples/4red.png""
             style=""position:absolute;
             top:55%;
             left:25%;
             transform: translate(-50%, -50%);
             height:400px;
             width:auto;
             ""/>

            <img src='img/jar_covered_opened.png'
            style=""position:absolute;
            z-index: -1;
            top:50%;
            left:50%;
            margin-top:-480px;
            margin-left:-300px;""/>

            <div style=""position:absolute;
             top:30%;
             left:70%;
             height: 300px;"">
            <img src=""img/faces/13.png""
             style=""position: relative;
             height:200px;
             width:auto""/>

            <img src=""img/agent_choices/35.png""
             style=""position: relative;
             top: 80px;
             left: -105px;
             transform: translate(-50%, -50%);""/>
             </div>

            </div>

            <div style=""width:200px;
            margin-bottom: 40px;
            margin-top: 20px;"">
            <p>Choose your confidence for the colour of the next bead:</p>
            <div style=""width:50px; float: left;"">
            <p><img src=""img/red_bead.png""/></p>
            </div>
            <div style=""width:50px; float: right;"">
            <p><img src=""img/green_bead.png""/></p>
            </div>
            </div>

            ","true","img/agent_choices/35.png","img/bead_samples/4red.png","html-slider-response","14165","584480","0.0-14165.0","JA23"
"2549.2999999523163","44","

            <div style=""z-index: -1"">

            <img src=""img/bead_samples/4red.png""
             style=""position:absolute;
             top:55%;
             left:25%;
             transform: translate(-50%, -50%);
             height:400px;
             width:auto;
             ""/>

            <img src='img/jar_covered_opened.png'
            style=""position:absolute;
            z-index: -1;
            top:50%;
            left:50%;
            margin-top:-480px;
            margin-left:-300px;""/>

            <div style=""position:absolute;
             top:30%;
             left:70%;
             height: 300px;"">
            <img src=""img/faces/14.png""
             style=""position: relative;
             height:200px;
             width:auto""/>

            <img src=""img/agent_choices/50.png""
             style=""position: relative;
             top: 80px;
             left: -105px;
             transform: translate(-50%, -50%);""/>
             </div>

            </div>

            <div style=""width:200px;
            margin-bottom: 40px;
            margin-top: 20px;"">
            <p>Choose your confidence for the colour of the next bead:</p>
            <div style=""width:50px; float: left;"">
            <p><img src=""img/red_bead.png""/></p>
            </div>
            <div style=""width:50px; float: right;"">
            <p><img src=""img/green_bead.png""/></p>
            </div>
            </div>

            ","true","img/agent_choices/50.png","img/bead_samples/4red.png","html-slider-response","14434","593136","0.0-14434.0","JA23"
"1997.199999988079","50","

            <div style=""z-index: -1"">

            <img src=""img/bead_samples/4red.png""
             style=""position:absolute;
             top:55%;
             left:25%;
             transform: translate(-50%, -50%);
             height:400px;
             width:auto;
             ""/>

            <img src='img/jar_covered_opened.png'
            style=""position:absolute;
            z-index: -1;
            top:50%;
            left:50%;
            margin-top:-480px;
            margin-left:-300px;""/>

            <div style=""position:absolute;
             top:30%;
             left:70%;
             height: 300px;"">
            <img src=""img/faces/15.png""
             style=""position: relative;
             height:200px;
             width:auto""/>

            <img src=""img/agent_choices/5.png""
             style=""position: relative;
             top: 80px;
             left: -105px;
             transform: translate(-50%, -50%);""/>
             </div>

            </div>

            <div style=""width:200px;
            margin-bottom: 40px;
            margin-top: 20px;"">
            <p>Choose your confidence for the colour of the next bead:</p>
            <div style=""width:50px; float: left;"">
            <p><img src=""img/red_bead.png""/></p>
            </div>
            <div style=""width:50px; float: right;"">
            <p><img src=""img/green_bead.png""/></p>
            </div>
            </div>

            ","true","img/agent_choices/5.png","img/bead_samples/4red.png","html-slider-response","14703","601190","0.0-14703.0","JA23"
"3488","84","

            <div style=""z-index: -1"">

            <img src=""img/bead_samples/1red.png""
             style=""position:absolute;
             top:55%;
             left:25%;
             transform: translate(-50%, -50%);
             height:400px;
             width:auto;
             ""/>

            <img src='img/jar_covered_opened.png'
            style=""position:absolute;
            z-index: -1;
            top:50%;
            left:50%;
            margin-top:-480px;
            margin-left:-300px;""/>

            <div style=""position:absolute;
             top:30%;
             left:70%;
             height: 300px;"">
            <img src=""img/faces/16.png""
             style=""position: relative;
             height:200px;
             width:auto""/>

            <img src=""img/agent_choices/40.png""
             style=""position: relative;
             top: 80px;
             left: -105px;
             transform: translate(-50%, -50%);""/>
             </div>

            </div>

            <div style=""width:200px;
            margin-bottom: 40px;
            margin-top: 20px;"">
            <p>Choose your confidence for the colour of the next bead:</p>
            <div style=""width:50px; float: left;"">
            <p><img src=""img/red_bead.png""/></p>
            </div>
            <div style=""width:50px; float: right;"">
            <p><img src=""img/green_bead.png""/></p>
            </div>
            </div>

            ","true","img/agent_choices/40.png","img/bead_samples/1red.png","html-slider-response","14972","610774","0.0-14972.0","JA23"
"5494.299999952316","71","

            <div style=""z-index: -1"">

            <img src=""img/bead_samples/3red.png""
             style=""position:absolute;
             top:55%;
             left:25%;
             transform: translate(-50%, -50%);
             height:400px;
             width:auto;
             ""/>

            <img src='img/jar_covered_opened.png'
            style=""position:absolute;
            z-index: -1;
            top:50%;
            left:50%;
            margin-top:-480px;
            margin-left:-300px;""/>

            <div style=""position:absolute;
             top:30%;
             left:70%;
             height: 300px;"">
            <img src=""img/faces/17.png""
             style=""position: relative;
             height:200px;
             width:auto""/>

            <img src=""img/agent_choices/55.png""
             style=""position: relative;
             top: 80px;
             left: -105px;
             transform: translate(-50%, -50%);""/>
             </div>

            </div>

            <div style=""width:200px;
            margin-bottom: 40px;
            margin-top: 20px;"">
            <p>Choose your confidence for the colour of the next bead:</p>
            <div style=""width:50px; float: left;"">
            <p><img src=""img/red_bead.png""/></p>
            </div>
            <div style=""width:50px; float: right;"">
            <p><img src=""img/green_bead.png""/></p>
            </div>
            </div>

            ","true","img/agent_choices/55.png","img/bead_samples/3red.png","html-slider-response","15241","622326","0.0-15241.0","JA23"
"4463.299999952316","70","

            <div style=""z-index: -1"">

            <img src=""img/bead_samples/3red.png""
             style=""position:absolute;
             top:55%;
             left:25%;
             transform: translate(-50%, -50%);
             height:400px;
             width:auto;
             ""/>

            <img src='img/jar_covered_opened.png'
            style=""position:absolute;
            z-index: -1;
            top:50%;
            left:50%;
            margin-top:-480px;
            margin-left:-300px;""/>

            <div style=""position:absolute;
             top:30%;
             left:70%;
             height: 300px;"">
            <img src=""img/faces/18.png""
             style=""position: relative;
             height:200px;
             width:auto""/>

            <img src=""img/agent_choices/60.png""
             style=""position: relative;
             top: 80px;
             left: -105px;
             transform: translate(-50%, -50%);""/>
             </div>

            </div>

            <div style=""width:200px;
            margin-bottom: 40px;
            margin-top: 20px;"">
            <p>Choose your confidence for the colour of the next bead:</p>
            <div style=""width:50px; float: left;"">
            <p><img src=""img/red_bead.png""/></p>
            </div>
            <div style=""width:50px; float: right;"">
            <p><img src=""img/green_bead.png""/></p>
            </div>
            </div>

            ","true","img/agent_choices/60.png","img/bead_samples/3red.png","html-slider-response","15510","632838","0.0-15510.0","JA23"
"3171.600000023842","79","

            <div style=""z-index: -1"">

            <img src=""img/bead_samples/2red.png""
             style=""position:absolute;
             top:55%;
             left:25%;
             transform: translate(-50%, -50%);
             height:400px;
             width:auto;
             ""/>

            <img src='img/jar_covered_opened.png'
            style=""position:absolute;
            z-index: -1;
            top:50%;
            left:50%;
            margin-top:-480px;
            margin-left:-300px;""/>

            <div style=""position:absolute;
             top:30%;
             left:70%;
             height: 300px;"">
            <img src=""img/faces/19.png""
             style=""position: relative;
             height:200px;
             width:auto""/>

            <img src=""img/agent_choices/55.png""
             style=""position: relative;
             top: 80px;
             left: -105px;
             transform: translate(-50%, -50%);""/>
             </div>

            </div>

            <div style=""width:200px;
            margin-bottom: 40px;
            margin-top: 20px;"">
            <p>Choose your confidence for the colour of the next bead:</p>
            <div style=""width:50px; float: left;"">
            <p><img src=""img/red_bead.png""/></p>
            </div>
            <div style=""width:50px; float: right;"">
            <p><img src=""img/green_bead.png""/></p>
            </div>
            </div>

            ","true","img/agent_choices/55.png","img/bead_samples/2red.png","html-slider-response","15779","642254","0.0-15779.0","JA23"
"3988","30","

            <div style=""z-index: -1"">

            <img src=""img/bead_samples/5red.png""
             style=""position:absolute;
             top:55%;
             left:25%;
             transform: translate(-50%, -50%);
             height:400px;
             width:auto;
             ""/>

            <img src='img/jar_covered_opened.png'
            style=""position:absolute;
            z-index: -1;
            top:50%;
            left:50%;
            margin-top:-480px;
            margin-left:-300px;""/>

            <div style=""position:absolute;
             top:30%;
             left:70%;
             height: 300px;"">
            <img src=""img/faces/20.png""
             style=""position: relative;
             height:200px;
             width:auto""/>

            <img src=""img/agent_choices/45.png""
             style=""position: relative;
             top: 80px;
             left: -105px;
             transform: translate(-50%, -50%);""/>
             </div>

            </div>

            <div style=""width:200px;
            margin-bottom: 40px;
            margin-top: 20px;"">
            <p>Choose your confidence for the colour of the next bead:</p>
            <div style=""width:50px; float: left;"">
            <p><img src=""img/red_bead.png""/></p>
            </div>
            <div style=""width:50px; float: right;"">
            <p><img src=""img/green_bead.png""/></p>
            </div>
            </div>

            ","true","img/agent_choices/45.png","img/bead_samples/5red.png","html-slider-response","16048","652311","0.0-16048.0","JA23"
"4448.100000023842","87","

            <div style=""z-index: -1"">

            <img src=""img/bead_samples/2red.png""
             style=""position:absolute;
             top:55%;
             left:25%;
             transform: translate(-50%, -50%);
             height:400px;
             width:auto;
             ""/>

            <img src='img/jar_covered_opened.png'
            style=""position:absolute;
            z-index: -1;
            top:50%;
            left:50%;
            margin-top:-480px;
            margin-left:-300px;""/>

            <div style=""position:absolute;
             top:30%;
             left:70%;
             height: 300px;"">
            <img src=""img/faces/1.png""
             style=""position: relative;
             height:200px;
             width:auto""/>

            <img src=""img/agent_choices/65.png""
             style=""position: relative;
             top: 80px;
             left: -105px;
             transform: translate(-50%, -50%);""/>
             </div>

            </div>

            <div style=""width:200px;
            margin-bottom: 40px;
            margin-top: 20px;"">
            <p>Choose your confidence for the colour of the next bead:</p>
            <div style=""width:50px; float: left;"">
            <p><img src=""img/red_bead.png""/></p>
            </div>
            <div style=""width:50px; float: right;"">
            <p><img src=""img/green_bead.png""/></p>
            </div>
            </div>

            ","true","img/agent_choices/65.png","img/bead_samples/2red.png","html-slider-response","16317","662990","0.0-16317.0","JA23"
"2535.099999964237","69","

            <div style=""z-index: -1"">

            <img src=""img/bead_samples/3red.png""
             style=""position:absolute;
             top:55%;
             left:25%;
             transform: translate(-50%, -50%);
             height:400px;
             width:auto;
             ""/>

            <img src='img/jar_covered_opened.png'
            style=""position:absolute;
            z-index: -1;
            top:50%;
            left:50%;
            margin-top:-480px;
            margin-left:-300px;""/>

            <div style=""position:absolute;
             top:30%;
             left:70%;
             height: 300px;"">
            <img src=""img/faces/2.png""
             style=""position: relative;
             height:200px;
             width:auto""/>

            <img src=""img/agent_choices/75.png""
             style=""position: relative;
             top: 80px;
             left: -105px;
             transform: translate(-50%, -50%);""/>
             </div>

            </div>

            <div style=""width:200px;
            margin-bottom: 40px;
            margin-top: 20px;"">
            <p>Choose your confidence for the colour of the next bead:</p>
            <div style=""width:50px; float: left;"">
            <p><img src=""img/red_bead.png""/></p>
            </div>
            <div style=""width:50px; float: right;"">
            <p><img src=""img/green_bead.png""/></p>
            </div>
            </div>

            ","true","img/agent_choices/75.png","img/bead_samples/3red.png","html-slider-response","16586","671615","0.0-16586.0","JA23"
"4067.300000011921","85","

            <div style=""z-index: -1"">

            <img src=""img/bead_samples/2red.png""
             style=""position:absolute;
             top:55%;
             left:25%;
             transform: translate(-50%, -50%);
             height:400px;
             width:auto;
             ""/>

            <img src='img/jar_covered_opened.png'
            style=""position:absolute;
            z-index: -1;
            top:50%;
            left:50%;
            margin-top:-480px;
            margin-left:-300px;""/>

            <div style=""position:absolute;
             top:30%;
             left:70%;
             height: 300px;"">
            <img src=""img/faces/3.png""
             style=""position: relative;
             height:200px;
             width:auto""/>

            <img src=""img/agent_choices/70.png""
             style=""position: relative;
             top: 80px;
             left: -105px;
             transform: translate(-50%, -50%);""/>
             </div>

            </div>

            <div style=""width:200px;
            margin-bottom: 40px;
            margin-top: 20px;"">
            <p>Choose your confidence for the colour of the next bead:</p>
            <div style=""width:50px; float: left;"">
            <p><img src=""img/red_bead.png""/></p>
            </div>
            <div style=""width:50px; float: right;"">
            <p><img src=""img/green_bead.png""/></p>
            </div>
            </div>

            ","true","img/agent_choices/70.png","img/bead_samples/2red.png","html-slider-response","16855","681958","0.0-16855.0","JA23"
"2615.900000035763","30","

            <div style=""z-index: -1"">

            <img src=""img/bead_samples/5red.png""
             style=""position:absolute;
             top:55%;
             left:25%;
             transform: translate(-50%, -50%);
             height:400px;
             width:auto;
             ""/>

            <img src='img/jar_covered_opened.png'
            style=""position:absolute;
            z-index: -1;
            top:50%;
            left:50%;
            margin-top:-480px;
            margin-left:-300px;""/>

            <div style=""position:absolute;
             top:30%;
             left:70%;
             height: 300px;"">
            <img src=""img/faces/4.png""
             style=""position: relative;
             height:200px;
             width:auto""/>

            <img src=""img/agent_choices/15.png""
             style=""position: relative;
             top: 80px;
             left: -105px;
             transform: translate(-50%, -50%);""/>
             </div>

            </div>

            <div style=""width:200px;
            margin-bottom: 40px;
            margin-top: 20px;"">
            <p>Choose your confidence for the colour of the next bead:</p>
            <div style=""width:50px; float: left;"">
            <p><img src=""img/red_bead.png""/></p>
            </div>
            <div style=""width:50px; float: right;"">
            <p><img src=""img/green_bead.png""/></p>
            </div>
            </div>

            ","true","img/agent_choices/15.png","img/bead_samples/5red.png","html-slider-response","17124","690831","0.0-17124.0","JA23"
"2733.900000035763","49","

            <div style=""z-index: -1"">

            <img src=""img/bead_samples/4red.png""
             style=""position:absolute;
             top:55%;
             left:25%;
             transform: translate(-50%, -50%);
             height:400px;
             width:auto;
             ""/>

            <img src='img/jar_covered_opened.png'
            style=""position:absolute;
            z-index: -1;
            top:50%;
            left:50%;
            margin-top:-480px;
            margin-left:-300px;""/>

            <div style=""position:absolute;
             top:30%;
             left:70%;
             height: 300px;"">
            <img src=""img/faces/5.png""
             style=""position: relative;
             height:200px;
             width:auto""/>

            <img src=""img/agent_choices/55.png""
             style=""position: relative;
             top: 80px;
             left: -105px;
             transform: translate(-50%, -50%);""/>
             </div>

            </div>

            <div style=""width:200px;
            margin-bottom: 40px;
            margin-top: 20px;"">
            <p>Choose your confidence for the colour of the next bead:</p>
            <div style=""width:50px; float: left;"">
            <p><img src=""img/red_bead.png""/></p>
            </div>
            <div style=""width:50px; float: right;"">
            <p><img src=""img/green_bead.png""/></p>
            </div>
            </div>

            ","true","img/agent_choices/55.png","img/bead_samples/4red.png","html-slider-response","17393","699894","0.0-17393.0","JA23"
"2434.100000023842","89","

            <div style=""z-index: -1"">

            <img src=""img/bead_samples/2red.png""
             style=""position:absolute;
             top:55%;
             left:25%;
             transform: translate(-50%, -50%);
             height:400px;
             width:auto;
             ""/>

            <img src='img/jar_covered_opened.png'
            style=""position:absolute;
            z-index: -1;
            top:50%;
            left:50%;
            margin-top:-480px;
            margin-left:-300px;""/>

            <div style=""position:absolute;
             top:30%;
             left:70%;
             height: 300px;"">
            <img src=""img/faces/6.png""
             style=""position: relative;
             height:200px;
             width:auto""/>

            <img src=""img/agent_choices/95.png""
             style=""position: relative;
             top: 80px;
             left: -105px;
             transform: translate(-50%, -50%);""/>
             </div>

            </div>

            <div style=""width:200px;
            margin-bottom: 40px;
            margin-top: 20px;"">
            <p>Choose your confidence for the colour of the next bead:</p>
            <div style=""width:50px; float: left;"">
            <p><img src=""img/red_bead.png""/></p>
            </div>
            <div style=""width:50px; float: right;"">
            <p><img src=""img/green_bead.png""/></p>
            </div>
            </div>

            ","true","img/agent_choices/95.png","img/bead_samples/2red.png","html-slider-response","17662","708646","0.0-17662.0","JA23"
"2529.699999988079","0","

            <div style=""z-index: -1"">

            <img src=""img/bead_samples/7red.png""
             style=""position:absolute;
             top:55%;
             left:25%;
             transform: translate(-50%, -50%);
             height:400px;
             width:auto;
             ""/>

            <img src='img/jar_covered_opened.png'
            style=""position:absolute;
            z-index: -1;
            top:50%;
            left:50%;
            margin-top:-480px;
            margin-left:-300px;""/>

            <div style=""position:absolute;
             top:30%;
             left:70%;
             height: 300px;"">
            <img src=""img/faces/7.png""
             style=""position: relative;
             height:200px;
             width:auto""/>

            <img src=""img/agent_choices/5.png""
             style=""position: relative;
             top: 80px;
             left: -105px;
             transform: translate(-50%, -50%);""/>
             </div>

            </div>

            <div style=""width:200px;
            margin-bottom: 40px;
            margin-top: 20px;"">
            <p>Choose your confidence for the colour of the next bead:</p>
            <div style=""width:50px; float: left;"">
            <p><img src=""img/red_bead.png""/></p>
            </div>
            <div style=""width:50px; float: right;"">
            <p><img src=""img/green_bead.png""/></p>
            </div>
            </div>

            ","true","img/agent_choices/5.png","img/bead_samples/7red.png","html-slider-response","17931","717478","0.0-17931.0","JA23"
"3831","18","

            <div style=""z-index: -1"">

            <img src=""img/bead_samples/6red.png""
             style=""position:absolute;
             top:55%;
             left:25%;
             transform: translate(-50%, -50%);
             height:400px;
             width:auto;
             ""/>

            <img src='img/jar_covered_opened.png'
            style=""position:absolute;
            z-index: -1;
            top:50%;
            left:50%;
            margin-top:-480px;
            margin-left:-300px;""/>

            <div style=""position:absolute;
             top:30%;
             left:70%;
             height: 300px;"">
            <img src=""img/faces/8.png""
             style=""position: relative;
             height:200px;
             width:auto""/>

            <img src=""img/agent_choices/10.png""
             style=""position: relative;
             top: 80px;
             left: -105px;
             transform: translate(-50%, -50%);""/>
             </div>

            </div>

            <div style=""width:200px;
            margin-bottom: 40px;
            margin-top: 20px;"">
            <p>Choose your confidence for the colour of the next bead:</p>
            <div style=""width:50px; float: left;"">
            <p><img src=""img/red_bead.png""/></p>
            </div>
            <div style=""width:50px; float: right;"">
            <p><img src=""img/green_bead.png""/></p>
            </div>
            </div>

            ","true","img/agent_choices/10.png","img/bead_samples/6red.png","html-slider-response","18200","727487","0.0-18200.0","JA23"
"2627.800000011921","30","

            <div style=""z-index: -1"">

            <img src=""img/bead_samples/5red.png""
             style=""position:absolute;
             top:55%;
             left:25%;
             transform: translate(-50%, -50%);
             height:400px;
             width:auto;
             ""/>

            <img src='img/jar_covered_opened.png'
            style=""position:absolute;
            z-index: -1;
            top:50%;
            left:50%;
            margin-top:-480px;
            margin-left:-300px;""/>

            <div style=""position:absolute;
             top:30%;
             left:70%;
             height: 300px;"">
            <img src=""img/faces/9.png""
             style=""position: relative;
             height:200px;
             width:auto""/>

            <img src=""img/agent_choices/5.png""
             style=""position: relative;
             top: 80px;
             left: -105px;
             transform: translate(-50%, -50%);""/>
             </div>

            </div>

            <div style=""width:200px;
            margin-bottom: 40px;
            margin-top: 20px;"">
            <p>Choose your confidence for the colour of the next bead:</p>
            <div style=""width:50px; float: left;"">
            <p><img src=""img/red_bead.png""/></p>
            </div>
            <div style=""width:50px; float: right;"">
            <p><img src=""img/green_bead.png""/></p>
            </div>
            </div>

            ","true","img/agent_choices/5.png","img/bead_samples/5red.png","html-slider-response","18469","736223","0.0-18469.0","JA23"
"2697.099999964237","88","

            <div style=""z-index: -1"">

            <img src=""img/bead_samples/2red.png""
             style=""position:absolute;
             top:55%;
             left:25%;
             transform: translate(-50%, -50%);
             height:400px;
             width:auto;
             ""/>

            <img src='img/jar_covered_opened.png'
            style=""position:absolute;
            z-index: -1;
            top:50%;
            left:50%;
            margin-top:-480px;
            margin-left:-300px;""/>

            <div style=""position:absolute;
             top:30%;
             left:70%;
             height: 300px;"">
            <img src=""img/faces/10.png""
             style=""position: relative;
             height:200px;
             width:auto""/>

            <img src=""img/agent_choices/60.png""
             style=""position: relative;
             top: 80px;
             left: -105px;
             transform: translate(-50%, -50%);""/>
             </div>

            </div>

            <div style=""width:200px;
            margin-bottom: 40px;
            margin-top: 20px;"">
            <p>Choose your confidence for the colour of the next bead:</p>
            <div style=""width:50px; float: left;"">
            <p><img src=""img/red_bead.png""/></p>
            </div>
            <div style=""width:50px; float: right;"">
            <p><img src=""img/green_bead.png""/></p>
            </div>
            </div>

            ","true","img/agent_choices/60.png","img/bead_samples/2red.png","html-slider-response","18738","745023","0.0-18738.0","JA23"
"2428.900000035763","81","

            <div style=""z-index: -1"">

            <img src=""img/bead_samples/2red.png""
             style=""position:absolute;
             top:55%;
             left:25%;
             transform: translate(-50%, -50%);
             height:400px;
             width:auto;
             ""/>

            <img src='img/jar_covered_opened.png'
            style=""position:absolute;
            z-index: -1;
            top:50%;
            left:50%;
            margin-top:-480px;
            margin-left:-300px;""/>

            <div style=""position:absolute;
             top:30%;
             left:70%;
             height: 300px;"">
            <img src=""img/faces/11.png""
             style=""position: relative;
             height:200px;
             width:auto""/>

            <img src=""img/agent_choices/75.png""
             style=""position: relative;
             top: 80px;
             left: -105px;
             transform: translate(-50%, -50%);""/>
             </div>

            </div>

            <div style=""width:200px;
            margin-bottom: 40px;
            margin-top: 20px;"">
            <p>Choose your confidence for the colour of the next bead:</p>
            <div style=""width:50px; float: left;"">
            <p><img src=""img/red_bead.png""/></p>
            </div>
            <div style=""width:50px; float: right;"">
            <p><img src=""img/green_bead.png""/></p>
            </div>
            </div>

            ","true","img/agent_choices/75.png","img/bead_samples/2red.png","html-slider-response","19007","753551","0.0-19007.0","JA23"
"3493","24","

            <div style=""z-index: -1"">

            <img src=""img/bead_samples/6red.png""
             style=""position:absolute;
             top:55%;
             left:25%;
             transform: translate(-50%, -50%);
             height:400px;
             width:auto;
             ""/>

            <img src='img/jar_covered_opened.png'
            style=""position:absolute;
            z-index: -1;
            top:50%;
            left:50%;
            margin-top:-480px;
            margin-left:-300px;""/>

            <div style=""position:absolute;
             top:30%;
             left:70%;
             height: 300px;"">
            <img src=""img/faces/12.png""
             style=""position: relative;
             height:200px;
             width:auto""/>

            <img src=""img/agent_choices/5.png""
             style=""position: relative;
             top: 80px;
             left: -105px;
             transform: translate(-50%, -50%);""/>
             </div>

            </div>

            <div style=""width:200px;
            margin-bottom: 40px;
            margin-top: 20px;"">
            <p>Choose your confidence for the colour of the next bead:</p>
            <div style=""width:50px; float: left;"">
            <p><img src=""img/red_bead.png""/></p>
            </div>
            <div style=""width:50px; float: right;"">
            <p><img src=""img/green_bead.png""/></p>
            </div>
            </div>

            ","true","img/agent_choices/5.png","img/bead_samples/6red.png","html-slider-response","19276","763175","0.0-19276.0","JA23"
"3918.699999988079","26","

            <div style=""z-index: -1"">

            <img src=""img/bead_samples/5red.png""
             style=""position:absolute;
             top:55%;
             left:25%;
             transform: translate(-50%, -50%);
             height:400px;
             width:auto;
             ""/>

            <img src='img/jar_covered_opened.png'
            style=""position:absolute;
            z-index: -1;
            top:50%;
            left:50%;
            margin-top:-480px;
            margin-left:-300px;""/>

            <div style=""position:absolute;
             top:30%;
             left:70%;
             height: 300px;"">
            <img src=""img/faces/13.png""
             style=""position: relative;
             height:200px;
             width:auto""/>

            <img src=""img/agent_choices/5.png""
             style=""position: relative;
             top: 80px;
             left: -105px;
             transform: translate(-50%, -50%);""/>
             </div>

            </div>

            <div style=""width:200px;
            margin-bottom: 40px;
            margin-top: 20px;"">
            <p>Choose your confidence for the colour of the next bead:</p>
            <div style=""width:50px; float: left;"">
            <p><img src=""img/red_bead.png""/></p>
            </div>
            <div style=""width:50px; float: right;"">
            <p><img src=""img/green_bead.png""/></p>
            </div>
            </div>

            ","true","img/agent_choices/5.png","img/bead_samples/5red.png","html-slider-response","19545","773432","0.0-19545.0","JA23"
"7939.600000023842","72","

            <div style=""z-index: -1"">

            <img src=""img/bead_samples/3red.png""
             style=""position:absolute;
             top:55%;
             left:25%;
             transform: translate(-50%, -50%);
             height:400px;
             width:auto;
             ""/>

            <img src='img/jar_covered_opened.png'
            style=""position:absolute;
            z-index: -1;
            top:50%;
            left:50%;
            margin-top:-480px;
            margin-left:-300px;""/>

            <div style=""position:absolute;
             top:30%;
             left:70%;
             height: 300px;"">
            <img src=""img/faces/14.png""
             style=""position: relative;
             height:200px;
             width:auto""/>

            <img src=""img/agent_choices/70.png""
             style=""position: relative;
             top: 80px;
             left: -105px;
             transform: translate(-50%, -50%);""/>
             </div>

            </div>

            <div style=""width:200px;
            margin-bottom: 40px;
            margin-top: 20px;"">
            <p>Choose your confidence for the colour of the next bead:</p>
            <div style=""width:50px; float: left;"">
            <p><img src=""img/red_bead.png""/></p>
            </div>
            <div style=""width:50px; float: right;"">
            <p><img src=""img/green_bead.png""/></p>
            </div>
            </div>

            ","true","img/agent_choices/70.png","img/bead_samples/3red.png","html-slider-response","19814","787766","0.0-19814.0","JA23"
"2742.600000023842","2","

            <div style=""z-index: -1"">

            <img src=""img/bead_samples/7red.png""
             style=""position:absolute;
             top:55%;
             left:25%;
             transform: translate(-50%, -50%);
             height:400px;
             width:auto;
             ""/>

            <img src='img/jar_covered_opened.png'
            style=""position:absolute;
            z-index: -1;
            top:50%;
            left:50%;
            margin-top:-480px;
            margin-left:-300px;""/>

            <div style=""position:absolute;
             top:30%;
             left:70%;
             height: 300px;"">
            <img src=""img/faces/15.png""
             style=""position: relative;
             height:200px;
             width:auto""/>

            <img src=""img/agent_choices/5.png""
             style=""position: relative;
             top: 80px;
             left: -105px;
             transform: translate(-50%, -50%);""/>
             </div>

            </div>

            <div style=""width:200px;
            margin-bottom: 40px;
            margin-top: 20px;"">
            <p>Choose your confidence for the colour of the next bead:</p>
            <div style=""width:50px; float: left;"">
            <p><img src=""img/red_bead.png""/></p>
            </div>
            <div style=""width:50px; float: right;"">
            <p><img src=""img/green_bead.png""/></p>
            </div>
            </div>

            ","true","img/agent_choices/5.png","img/bead_samples/7red.png","html-slider-response","20083","796710","0.0-20083.0","JA23"
"2153.199999988079","7","

            <div style=""z-index: -1"">

            <img src=""img/bead_samples/7red.png""
             style=""position:absolute;
             top:55%;
             left:25%;
             transform: translate(-50%, -50%);
             height:400px;
             width:auto;
             ""/>

            <img src='img/jar_covered_opened.png'
            style=""position:absolute;
            z-index: -1;
            top:50%;
            left:50%;
            margin-top:-480px;
            margin-left:-300px;""/>

            <div style=""position:absolute;
             top:30%;
             left:70%;
             height: 300px;"">
            <img src=""img/faces/16.png""
             style=""position: relative;
             height:200px;
             width:auto""/>

            <img src=""img/agent_choices/5.png""
             style=""position: relative;
             top: 80px;
             left: -105px;
             transform: translate(-50%, -50%);""/>
             </div>

            </div>

            <div style=""width:200px;
            margin-bottom: 40px;
            margin-top: 20px;"">
            <p>Choose your confidence for the colour of the next bead:</p>
            <div style=""width:50px; float: left;"">
            <p><img src=""img/red_bead.png""/></p>
            </div>
            <div style=""width:50px; float: right;"">
            <p><img src=""img/green_bead.png""/></p>
            </div>
            </div>

            ","true","img/agent_choices/5.png","img/bead_samples/7red.png","html-slider-response","20352","805149","0.0-20352.0","JA23"
"3308.899999976158","96","

            <div style=""z-index: -1"">

            <img src=""img/bead_samples/1red.png""
             style=""position:absolute;
             top:55%;
             left:25%;
             transform: translate(-50%, -50%);
             height:400px;
             width:auto;
             ""/>

            <img src='img/jar_covered_opened.png'
            style=""position:absolute;
            z-index: -1;
            top:50%;
            left:50%;
            margin-top:-480px;
            margin-left:-300px;""/>

            <div style=""position:absolute;
             top:30%;
             left:70%;
             height: 300px;"">
            <img src=""img/faces/17.png""
             style=""position: relative;
             height:200px;
             width:auto""/>

            <img src=""img/agent_choices/85.png""
