"rt","response","stimulus","participant_response","agent_decision_1","agent_decision_2","beads_shown","trial_type","trial_index","time_elapsed","internal_node_id","subject_id"
"11940.599999904633","18","

            <div style=""z-index: -1"">

            <img src=""img/bead_samples/0.7.png""
             style=""position:absolute;
             top:55%;
             left:25%;
             transform: translate(-50%, -50%);
             height:300px;
             width:auto;
             ""/>

            <img src='img/jar_covered_opened.png'
            style=""position:absolute;
            z-index: -1;
            top:50%;
            left:53%;
            height: 600px;
            margin-top:-430px;
            margin-left:-290px""/>

            <img src=""img/faces/1.png""
            style=""position:absolute;
             top:10%;
             left:85%;
             height:200px;
             width:auto;""/>

            <img src=""img/faces/2.png""
            style=""position:absolute;
             top:50%;
             left:85%;
             height:200px;
             width:auto;""/>

             <img src=""img/agent_choices_piechart/15.png""
            style=""position:absolute;
             top:27%;
             left:70%;
             height:30px;
             width:auto;""/>

             <img src=""img/agent_choices_piechart/20.png""
            style=""position:absolute;
             top:67%;
             left:70%;
             height:30px;
             width:auto;""/>
            </div>

            <div style=""width:200px;
            margin-bottom: 40px;
            margin-top: 50px;"">
            <p style=""top:40%;right:0%; position:relative;"">Choose your confidence for the jar which the beads are drawn from:</p>
            <div style=""width:10px; float: left;"">
            <p><img src=""img/red_jar_piechart.png"" style=""width:30px; top:43px""/></p>
            </div>
            <div style=""width: 25px; float: right;"">
            <p><img src=""img/green_jar_piechart.png"" style=""width:30px; top:43px""/></p>
            </div>
            </div>

            ","true","img/agent_choices_piechart/15.png","img/agent_choices_piechart/20.png","img/bead_samples/0.7.png","html-slider-response","1288","227007","0.0-1288.0","R_3nuTaeckaP246Wk"
"22484.89999985695","50","

            <div style=""z-index: -1"">

            <img src=""img/bead_samples/0.3.png""
             style=""position:absolute;
             top:55%;
             left:25%;
             transform: translate(-50%, -50%);
             height:300px;
             width:auto;
             ""/>

            <img src='img/jar_covered_opened.png'
            style=""position:absolute;
            z-index: -1;
            top:50%;
            left:53%;
            height: 600px;
            margin-top:-430px;
            margin-left:-290px""/>

            <img src=""img/faces/2.png""
            style=""position:absolute;
             top:10%;
             left:85%;
             height:200px;
             width:auto;""/>

            <img src=""img/faces/3.png""
            style=""position:absolute;
             top:50%;
             left:85%;
             height:200px;
             width:auto;""/>

             <img src=""img/agent_choices_piechart/50.png""
            style=""position:absolute;
             top:27%;
             left:70%;
             height:30px;
             width:auto;""/>

             <img src=""img/agent_choices_piechart/40.png""
            style=""position:absolute;
             top:67%;
             left:70%;
             height:30px;
             width:auto;""/>
            </div>

            <div style=""width:200px;
            margin-bottom: 40px;
            margin-top: 50px;"">
            <p style=""top:40%;right:0%; position:relative;"">Choose your confidence for the jar which the beads are drawn from:</p>
            <div style=""width:10px; float: left;"">
            <p><img src=""img/red_jar_piechart.png"" style=""width:30px; top:43px""/></p>
            </div>
            <div style=""width: 25px; float: right;"">
            <p><img src=""img/green_jar_piechart.png"" style=""width:30px; top:43px""/></p>
            </div>
            </div>

            ","true","img/agent_choices_piechart/50.png","img/agent_choices_piechart/40.png","img/bead_samples/0.3.png","html-slider-response","1795","259336","0.0-1795.0","R_3nuTaeckaP246Wk"
"17447.700000047684","50","

            <div style=""z-index: -1"">

            <img src=""img/bead_samples/0.4.png""
             style=""position:absolute;
             top:55%;
             left:25%;
             transform: translate(-50%, -50%);
             height:300px;
             width:auto;
             ""/>

            <img src='img/jar_covered_opened.png'
            style=""position:absolute;
            z-index: -1;
            top:50%;
            left:53%;
            height: 600px;
            margin-top:-430px;
            margin-left:-290px""/>

            <img src=""img/faces/3.png""
            style=""position:absolute;
             top:10%;
             left:85%;
             height:200px;
             width:auto;""/>

            <img src=""img/faces/4.png""
            style=""position:absolute;
             top:50%;
             left:85%;
             height:200px;
             width:auto;""/>

             <img src=""img/agent_choices_piechart/30.png""
            style=""position:absolute;
             top:27%;
             left:70%;
             height:30px;
             width:auto;""/>

             <img src=""img/agent_choices_piechart/50.png""
            style=""position:absolute;
             top:67%;
             left:70%;
             height:30px;
             width:auto;""/>
            </div>

            <div style=""width:200px;
            margin-bottom: 40px;
            margin-top: 50px;"">
            <p style=""top:40%;right:0%; position:relative;"">Choose your confidence for the jar which the beads are drawn from:</p>
            <div style=""width:10px; float: left;"">
            <p><img src=""img/red_jar_piechart.png"" style=""width:30px; top:43px""/></p>
            </div>
            <div style=""width: 25px; float: right;"">
            <p><img src=""img/green_jar_piechart.png"" style=""width:30px; top:43px""/></p>
            </div>
            </div>

            ","true","img/agent_choices_piechart/30.png","img/agent_choices_piechart/50.png","img/bead_samples/0.4.png","html-slider-response","2302","286764","0.0-2302.0","R_3nuTaeckaP246Wk"
"15860.599999904633","67","

            <div style=""z-index: -1"">

            <img src=""img/bead_samples/0.1.png""
             style=""position:absolute;
             top:55%;
             left:25%;
             transform: translate(-50%, -50%);
             height:300px;
             width:auto;
             ""/>

            <img src='img/jar_covered_opened.png'
            style=""position:absolute;
            z-index: -1;
            top:50%;
            left:53%;
            height: 600px;
            margin-top:-430px;
            margin-left:-290px""/>

            <img src=""img/faces/1.png""
            style=""position:absolute;
             top:10%;
             left:85%;
             height:200px;
             width:auto;""/>

            <img src=""img/faces/2.png""
            style=""position:absolute;
             top:50%;
             left:85%;
             height:200px;
             width:auto;""/>

             <img src=""img/agent_choices_piechart/55.png""
            style=""position:absolute;
             top:27%;
             left:70%;
             height:30px;
             width:auto;""/>

             <img src=""img/agent_choices_piechart/45.png""
            style=""position:absolute;
             top:67%;
             left:70%;
             height:30px;
             width:auto;""/>
            </div>

            <div style=""width:200px;
            margin-bottom: 40px;
            margin-top: 50px;"">
            <p style=""top:40%;right:0%; position:relative;"">Choose your confidence for the jar which the beads are drawn from:</p>
            <div style=""width:10px; float: left;"">
            <p><img src=""img/red_jar_piechart.png"" style=""width:30px; top:43px""/></p>
            </div>
            <div style=""width: 25px; float: right;"">
            <p><img src=""img/green_jar_piechart.png"" style=""width:30px; top:43px""/></p>
            </div>
            </div>

            ","true","img/agent_choices_piechart/55.png","img/agent_choices_piechart/45.png","img/bead_samples/0.1.png","html-slider-response","2366","326191","0.0-2366.0","R_3nuTaeckaP246Wk"
"28080.10000014305","44","

            <div style=""z-index: -1"">

            <img src=""img/bead_samples/0.6.png""
             style=""position:absolute;
             top:55%;
             left:25%;
             transform: translate(-50%, -50%);
             height:300px;
             width:auto;
             ""/>

            <img src='img/jar_covered_opened.png'
            style=""position:absolute;
            z-index: -1;
            top:50%;
            left:53%;
            height: 600px;
            margin-top:-430px;
            margin-left:-290px""/>

            <img src=""img/faces/2.png""
            style=""position:absolute;
             top:10%;
             left:85%;
             height:200px;
             width:auto;""/>

            <img src=""img/faces/3.png""
            style=""position:absolute;
             top:50%;
             left:85%;
             height:200px;
             width:auto;""/>

             <img src=""img/agent_choices_piechart/95.png""
            style=""position:absolute;
             top:27%;
             left:70%;
             height:30px;
             width:auto;""/>

             <img src=""img/agent_choices_piechart/40.png""
            style=""position:absolute;
             top:67%;
             left:70%;
             height:30px;
             width:auto;""/>
            </div>

            <div style=""width:200px;
            margin-bottom: 40px;
            margin-top: 50px;"">
            <p style=""top:40%;right:0%; position:relative;"">Choose your confidence for the jar which the beads are drawn from:</p>
            <div style=""width:10px; float: left;"">
            <p><img src=""img/red_jar_piechart.png"" style=""width:30px; top:43px""/></p>
            </div>
            <div style=""width: 25px; float: right;"">
            <p><img src=""img/green_jar_piechart.png"" style=""width:30px; top:43px""/></p>
            </div>
            </div>

            ","true","img/agent_choices_piechart/95.png","img/agent_choices_piechart/40.png","img/bead_samples/0.6.png","html-slider-response","2428","355199","0.0-2428.0","R_3nuTaeckaP246Wk"
"16717.599999904633","43","

            <div style=""z-index: -1"">

            <img src=""img/bead_samples/0.7.png""
             style=""position:absolute;
             top:55%;
             left:25%;
             transform: translate(-50%, -50%);
             height:300px;
             width:auto;
             ""/>

            <img src='img/jar_covered_opened.png'
            style=""position:absolute;
            z-index: -1;
            top:50%;
            left:53%;
            height: 600px;
            margin-top:-430px;
            margin-left:-290px""/>

            <img src=""img/faces/3.png""
            style=""position:absolute;
             top:10%;
             left:85%;
             height:200px;
             width:auto;""/>

            <img src=""img/faces/4.png""
            style=""position:absolute;
             top:50%;
             left:85%;
             height:200px;
             width:auto;""/>

             <img src=""img/agent_choices_piechart/85.png""
            style=""position:absolute;
             top:27%;
             left:70%;
             height:30px;
             width:auto;""/>

             <img src=""img/agent_choices_piechart/40.png""
            style=""position:absolute;
             top:67%;
             left:70%;
             height:30px;
             width:auto;""/>
            </div>

            <div style=""width:200px;
            margin-bottom: 40px;
            margin-top: 50px;"">
            <p style=""top:40%;right:0%; position:relative;"">Choose your confidence for the jar which the beads are drawn from:</p>
            <div style=""width:10px; float: left;"">
            <p><img src=""img/red_jar_piechart.png"" style=""width:30px; top:43px""/></p>
            </div>
            <div style=""width: 25px; float: right;"">
            <p><img src=""img/green_jar_piechart.png"" style=""width:30px; top:43px""/></p>
            </div>
            </div>

            ","true","img/agent_choices_piechart/85.png","img/agent_choices_piechart/40.png","img/bead_samples/0.7.png","html-slider-response","2490","372841","0.0-2490.0","R_3nuTaeckaP246Wk"
"21660.900000095367","50","

            <div style=""z-index: -1"">

            <img src=""img/bead_samples/0.6.png""
             style=""position:absolute;
             top:55%;
             left:25%;
             transform: translate(-50%, -50%);
             height:300px;
             width:auto;
             ""/>

            <img src='img/jar_covered_opened.png'
            style=""position:absolute;
            z-index: -1;
            top:50%;
            left:53%;
            height: 600px;
            margin-top:-430px;
            margin-left:-290px""/>

            <img src=""img/faces/4.png""
            style=""position:absolute;
             top:10%;
             left:85%;
             height:200px;
             width:auto;""/>

            <img src=""img/faces/5.png""
            style=""position:absolute;
             top:50%;
             left:85%;
             height:200px;
             width:auto;""/>

             <img src=""img/agent_choices_piechart/85.png""
            style=""position:absolute;
             top:27%;
             left:70%;
             height:30px;
             width:auto;""/>

             <img src=""img/agent_choices_piechart/65.png""
            style=""position:absolute;
             top:67%;
             left:70%;
             height:30px;
             width:auto;""/>
            </div>

            <div style=""width:200px;
            margin-bottom: 40px;
            margin-top: 50px;"">
            <p style=""top:40%;right:0%; position:relative;"">Choose your confidence for the jar which the beads are drawn from:</p>
            <div style=""width:10px; float: left;"">
            <p><img src=""img/red_jar_piechart.png"" style=""width:30px; top:43px""/></p>
            </div>
            <div style=""width: 25px; float: right;"">
            <p><img src=""img/green_jar_piechart.png"" style=""width:30px; top:43px""/></p>
            </div>
            </div>

            ","true","img/agent_choices_piechart/85.png","img/agent_choices_piechart/65.png","img/bead_samples/0.6.png","html-slider-response","2552","395413","0.0-2552.0","R_3nuTaeckaP246Wk"
"18952.400000095367","70","

            <div style=""z-index: -1"">

            <img src=""img/bead_samples/0.3.png""
             style=""position:absolute;
             top:55%;
             left:25%;
             transform: translate(-50%, -50%);
             height:300px;
             width:auto;
             ""/>

            <img src='img/jar_covered_opened.png'
            style=""position:absolute;
            z-index: -1;
            top:50%;
            left:53%;
            height: 600px;
            margin-top:-430px;
            margin-left:-290px""/>

            <img src=""img/faces/5.png""
            style=""position:absolute;
             top:10%;
             left:85%;
             height:200px;
             width:auto;""/>

            <img src=""img/faces/6.png""
            style=""position:absolute;
             top:50%;
             left:85%;
             height:200px;
             width:auto;""/>

             <img src=""img/agent_choices_piechart/45.png""
            style=""position:absolute;
             top:27%;
             left:70%;
             height:30px;
             width:auto;""/>

             <img src=""img/agent_choices_piechart/75.png""
            style=""position:absolute;
             top:67%;
             left:70%;
             height:30px;
             width:auto;""/>
            </div>

            <div style=""width:200px;
            margin-bottom: 40px;
            margin-top: 50px;"">
            <p style=""top:40%;right:0%; position:relative;"">Choose your confidence for the jar which the beads are drawn from:</p>
            <div style=""width:10px; float: left;"">
            <p><img src=""img/red_jar_piechart.png"" style=""width:30px; top:43px""/></p>
            </div>
            <div style=""width: 25px; float: right;"">
            <p><img src=""img/green_jar_piechart.png"" style=""width:30px; top:43px""/></p>
            </div>
            </div>

            ","true","img/agent_choices_piechart/45.png","img/agent_choices_piechart/75.png","img/bead_samples/0.3.png","html-slider-response","2614","415345","0.0-2614.0","R_3nuTaeckaP246Wk"
"13667","56","

            <div style=""z-index: -1"">

            <img src=""img/bead_samples/0.4.png""
             style=""position:absolute;
             top:55%;
             left:25%;
             transform: translate(-50%, -50%);
             height:300px;
             width:auto;
             ""/>

            <img src='img/jar_covered_opened.png'
            style=""position:absolute;
            z-index: -1;
            top:50%;
            left:53%;
            height: 600px;
            margin-top:-430px;
            margin-left:-290px""/>

            <img src=""img/faces/6.png""
            style=""position:absolute;
             top:10%;
             left:85%;
             height:200px;
             width:auto;""/>

            <img src=""img/faces/7.png""
            style=""position:absolute;
             top:50%;
             left:85%;
             height:200px;
             width:auto;""/>

             <img src=""img/agent_choices_piechart/85.png""
            style=""position:absolute;
             top:27%;
             left:70%;
             height:30px;
             width:auto;""/>

             <img src=""img/agent_choices_piechart/45.png""
            style=""position:absolute;
             top:67%;
             left:70%;
             height:30px;
             width:auto;""/>
            </div>

            <div style=""width:200px;
            margin-bottom: 40px;
            margin-top: 50px;"">
            <p style=""top:40%;right:0%; position:relative;"">Choose your confidence for the jar which the beads are drawn from:</p>
            <div style=""width:10px; float: left;"">
            <p><img src=""img/red_jar_piechart.png"" style=""width:30px; top:43px""/></p>
            </div>
            <div style=""width: 25px; float: right;"">
            <p><img src=""img/green_jar_piechart.png"" style=""width:30px; top:43px""/></p>
            </div>
            </div>

            ","true","img/agent_choices_piechart/85.png","img/agent_choices_piechart/45.png","img/bead_samples/0.4.png","html-slider-response","2676","429845","0.0-2676.0","R_3nuTaeckaP246Wk"
"27448.89999985695","28","

            <div style=""z-index: -1"">

            <img src=""img/bead_samples/0.7.png""
             style=""position:absolute;
             top:55%;
             left:25%;
             transform: translate(-50%, -50%);
             height:300px;
             width:auto;
             ""/>

            <img src='img/jar_covered_opened.png'
            style=""position:absolute;
            z-index: -1;
            top:50%;
            left:53%;
            height: 600px;
            margin-top:-430px;
            margin-left:-290px""/>

            <img src=""img/faces/7.png""
            style=""position:absolute;
             top:10%;
             left:85%;
             height:200px;
             width:auto;""/>

            <img src=""img/faces/8.png""
            style=""position:absolute;
             top:50%;
             left:85%;
             height:200px;
             width:auto;""/>

             <img src=""img/agent_choices_piechart/40.png""
            style=""position:absolute;
             top:27%;
             left:70%;
             height:30px;
             width:auto;""/>

             <img src=""img/agent_choices_piechart/50.png""
            style=""position:absolute;
             top:67%;
             left:70%;
             height:30px;
             width:auto;""/>
            </div>

            <div style=""width:200px;
            margin-bottom: 40px;
            margin-top: 50px;"">
            <p style=""top:40%;right:0%; position:relative;"">Choose your confidence for the jar which the beads are drawn from:</p>
            <div style=""width:10px; float: left;"">
            <p><img src=""img/red_jar_piechart.png"" style=""width:30px; top:43px""/></p>
            </div>
            <div style=""width: 25px; float: right;"">
            <p><img src=""img/green_jar_piechart.png"" style=""width:30px; top:43px""/></p>
            </div>
            </div>

            ","true","img/agent_choices_piechart/40.png","img/agent_choices_piechart/50.png","img/bead_samples/0.7.png","html-slider-response","2738","458314","0.0-2738.0","R_3nuTaeckaP246Wk"
"15028.199999809265","16","

            <div style=""z-index: -1"">

            <img src=""img/bead_samples/0.9.png""
             style=""position:absolute;
             top:55%;
             left:25%;
             transform: translate(-50%, -50%);
             height:300px;
             width:auto;
             ""/>

            <img src='img/jar_covered_opened.png'
            style=""position:absolute;
            z-index: -1;
            top:50%;
            left:53%;
            height: 600px;
            margin-top:-430px;
            margin-left:-290px""/>

            <img src=""img/faces/8.png""
            style=""position:absolute;
             top:10%;
             left:85%;
             height:200px;
             width:auto;""/>

            <img src=""img/faces/9.png""
            style=""position:absolute;
             top:50%;
             left:85%;
             height:200px;
             width:auto;""/>

             <img src=""img/agent_choices_piechart/35.png""
            style=""position:absolute;
             top:27%;
             left:70%;
             height:30px;
             width:auto;""/>

             <img src=""img/agent_choices_piechart/55.png""
            style=""position:absolute;
             top:67%;
             left:70%;
             height:30px;
             width:auto;""/>
            </div>

            <div style=""width:200px;
            margin-bottom: 40px;
            margin-top: 50px;"">
            <p style=""top:40%;right:0%; position:relative;"">Choose your confidence for the jar which the beads are drawn from:</p>
            <div style=""width:10px; float: left;"">
            <p><img src=""img/red_jar_piechart.png"" style=""width:30px; top:43px""/></p>
            </div>
            <div style=""width: 25px; float: right;"">
            <p><img src=""img/green_jar_piechart.png"" style=""width:30px; top:43px""/></p>
            </div>
            </div>

            ","true","img/agent_choices_piechart/35.png","img/agent_choices_piechart/55.png","img/bead_samples/0.9.png","html-slider-response","2800","474248","0.0-2800.0","R_3nuTaeckaP246Wk"
"11961.400000095367","50","

            <div style=""z-index: -1"">

            <img src=""img/bead_samples/0.4.png""
             style=""position:absolute;
             top:55%;
             left:25%;
             transform: translate(-50%, -50%);
             height:300px;
             width:auto;
             ""/>

            <img src='img/jar_covered_opened.png'
            style=""position:absolute;
            z-index: -1;
            top:50%;
            left:53%;
            height: 600px;
            margin-top:-430px;
            margin-left:-290px""/>

            <img src=""img/faces/9.png""
            style=""position:absolute;
             top:10%;
             left:85%;
             height:200px;
             width:auto;""/>

            <img src=""img/faces/10.png""
            style=""position:absolute;
             top:50%;
             left:85%;
             height:200px;
             width:auto;""/>

             <img src=""img/agent_choices_piechart/25.png""
            style=""position:absolute;
             top:27%;
             left:70%;
             height:30px;
             width:auto;""/>

             <img src=""img/agent_choices_piechart/65.png""
            style=""position:absolute;
             top:67%;
             left:70%;
             height:30px;
             width:auto;""/>
            </div>

            <div style=""width:200px;
            margin-bottom: 40px;
            margin-top: 50px;"">
            <p style=""top:40%;right:0%; position:relative;"">Choose your confidence for the jar which the beads are drawn from:</p>
            <div style=""width:10px; float: left;"">
            <p><img src=""img/red_jar_piechart.png"" style=""width:30px; top:43px""/></p>
            </div>
            <div style=""width: 25px; float: right;"">
            <p><img src=""img/green_jar_piechart.png"" style=""width:30px; top:43px""/></p>
            </div>
            </div>

            ","true","img/agent_choices_piechart/25.png","img/agent_choices_piechart/65.png","img/bead_samples/0.4.png","html-slider-response","2862","487149","0.0-2862.0","R_3nuTaeckaP246Wk"
"11525.5","41","

            <div style=""z-index: -1"">

            <img src=""img/bead_samples/0.6.png""
             style=""position:absolute;
             top:55%;
             left:25%;
             transform: translate(-50%, -50%);
             height:300px;
             width:auto;
             ""/>

            <img src='img/jar_covered_opened.png'
            style=""position:absolute;
            z-index: -1;
            top:50%;
            left:53%;
            height: 600px;
            margin-top:-430px;
            margin-left:-290px""/>

            <img src=""img/faces/10.png""
            style=""position:absolute;
             top:10%;
             left:85%;
             height:200px;
             width:auto;""/>

            <img src=""img/faces/11.png""
            style=""position:absolute;
             top:50%;
             left:85%;
             height:200px;
             width:auto;""/>

             <img src=""img/agent_choices_piechart/80.png""
            style=""position:absolute;
             top:27%;
             left:70%;
             height:30px;
             width:auto;""/>

             <img src=""img/agent_choices_piechart/40.png""
            style=""position:absolute;
             top:67%;
             left:70%;
             height:30px;
             width:auto;""/>
            </div>

            <div style=""width:200px;
            margin-bottom: 40px;
            margin-top: 50px;"">
            <p style=""top:40%;right:0%; position:relative;"">Choose your confidence for the jar which the beads are drawn from:</p>
            <div style=""width:10px; float: left;"">
            <p><img src=""img/red_jar_piechart.png"" style=""width:30px; top:43px""/></p>
            </div>
            <div style=""width: 25px; float: right;"">
            <p><img src=""img/green_jar_piechart.png"" style=""width:30px; top:43px""/></p>
            </div>
            </div>

            ","true","img/agent_choices_piechart/80.png","img/agent_choices_piechart/40.png","img/bead_samples/0.6.png","html-slider-response","2924","499543","0.0-2924.0","R_3nuTaeckaP246Wk"
"20554.5","78","

            <div style=""z-index: -1"">

            <img src=""img/bead_samples/0.1.png""
             style=""position:absolute;
             top:55%;
             left:25%;
             transform: translate(-50%, -50%);
             height:300px;
             width:auto;
             ""/>

            <img src='img/jar_covered_opened.png'
            style=""position:absolute;
            z-index: -1;
            top:50%;
            left:53%;
            height: 600px;
            margin-top:-430px;
            margin-left:-290px""/>

            <img src=""img/faces/11.png""
            style=""position:absolute;
             top:10%;
             left:85%;
             height:200px;
             width:auto;""/>

            <img src=""img/faces/12.png""
            style=""position:absolute;
             top:50%;
             left:85%;
             height:200px;
             width:auto;""/>

             <img src=""img/agent_choices_piechart/70.png""
            style=""position:absolute;
             top:27%;
             left:70%;
             height:30px;
             width:auto;""/>

             <img src=""img/agent_choices_piechart/40.png""
            style=""position:absolute;
             top:67%;
             left:70%;
             height:30px;
             width:auto;""/>
            </div>

            <div style=""width:200px;
            margin-bottom: 40px;
            margin-top: 50px;"">
            <p style=""top:40%;right:0%; position:relative;"">Choose your confidence for the jar which the beads are drawn from:</p>
            <div style=""width:10px; float: left;"">
            <p><img src=""img/red_jar_piechart.png"" style=""width:30px; top:43px""/></p>
            </div>
            <div style=""width: 25px; float: right;"">
            <p><img src=""img/green_jar_piechart.png"" style=""width:30px; top:43px""/></p>
            </div>
            </div>

            ","true","img/agent_choices_piechart/70.png","img/agent_choices_piechart/40.png","img/bead_samples/0.1.png","html-slider-response","2986","521044","0.0-2986.0","R_3nuTaeckaP246Wk"
"22477.5","30","

            <div style=""z-index: -1"">

            <img src=""img/bead_samples/0.8.png""
             style=""position:absolute;
             top:55%;
             left:25%;
             transform: translate(-50%, -50%);
             height:300px;
             width:auto;
             ""/>

            <img src='img/jar_covered_opened.png'
            style=""position:absolute;
            z-index: -1;
            top:50%;
            left:53%;
            height: 600px;
            margin-top:-430px;
            margin-left:-290px""/>

            <img src=""img/faces/12.png""
            style=""position:absolute;
             top:10%;
             left:85%;
             height:200px;
             width:auto;""/>

            <img src=""img/faces/13.png""
            style=""position:absolute;
             top:50%;
             left:85%;
             height:200px;
             width:auto;""/>

             <img src=""img/agent_choices_piechart/85.png""
            style=""position:absolute;
             top:27%;
             left:70%;
             height:30px;
             width:auto;""/>

             <img src=""img/agent_choices_piechart/30.png""
            style=""position:absolute;
             top:67%;
             left:70%;
             height:30px;
             width:auto;""/>
            </div>

            <div style=""width:200px;
            margin-bottom: 40px;
            margin-top: 50px;"">
            <p style=""top:40%;right:0%; position:relative;"">Choose your confidence for the jar which the beads are drawn from:</p>
            <div style=""width:10px; float: left;"">
            <p><img src=""img/red_jar_piechart.png"" style=""width:30px; top:43px""/></p>
            </div>
            <div style=""width: 25px; float: right;"">
            <p><img src=""img/green_jar_piechart.png"" style=""width:30px; top:43px""/></p>
            </div>
            </div>

            ","true","img/agent_choices_piechart/85.png","img/agent_choices_piechart/30.png","img/bead_samples/0.8.png","html-slider-response","3048","544472","0.0-3048.0","R_3nuTaeckaP246Wk"
"29904.599999904633","46","

            <div style=""z-index: -1"">

            <img src=""img/bead_samples/0.3.png""
             style=""position:absolute;
             top:55%;
             left:25%;
             transform: translate(-50%, -50%);
             height:300px;
             width:auto;
             ""/>

            <img src='img/jar_covered_opened.png'
            style=""position:absolute;
            z-index: -1;
            top:50%;
            left:53%;
            height: 600px;
            margin-top:-430px;
            margin-left:-290px""/>

            <img src=""img/faces/13.png""
            style=""position:absolute;
             top:10%;
             left:85%;
             height:200px;
             width:auto;""/>

            <img src=""img/faces/14.png""
            style=""position:absolute;
             top:50%;
             left:85%;
             height:200px;
             width:auto;""/>

             <img src=""img/agent_choices_piechart/30.png""
            style=""position:absolute;
             top:27%;
             left:70%;
             height:30px;
             width:auto;""/>

             <img src=""img/agent_choices_piechart/35.png""
            style=""position:absolute;
             top:67%;
             left:70%;
             height:30px;
             width:auto;""/>
            </div>

            <div style=""width:200px;
            margin-bottom: 40px;
            margin-top: 50px;"">
            <p style=""top:40%;right:0%; position:relative;"">Choose your confidence for the jar which the beads are drawn from:</p>
            <div style=""width:10px; float: left;"">
            <p><img src=""img/red_jar_piechart.png"" style=""width:30px; top:43px""/></p>
            </div>
            <div style=""width: 25px; float: right;"">
            <p><img src=""img/green_jar_piechart.png"" style=""width:30px; top:43px""/></p>
            </div>
            </div>

            ","true","img/agent_choices_piechart/30.png","img/agent_choices_piechart/35.png","img/bead_samples/0.3.png","html-slider-response","3110","575258","0.0-3110.0","R_3nuTaeckaP246Wk"
"17095.299999952316","62","

            <div style=""z-index: -1"">

            <img src=""img/bead_samples/0.3.png""
             style=""position:absolute;
             top:55%;
             left:25%;
             transform: translate(-50%, -50%);
             height:300px;
             width:auto;
             ""/>

            <img src='img/jar_covered_opened.png'
            style=""position:absolute;
            z-index: -1;
            top:50%;
            left:53%;
            height: 600px;
            margin-top:-430px;
            margin-left:-290px""/>

            <img src=""img/faces/14.png""
            style=""position:absolute;
             top:10%;
             left:85%;
             height:200px;
             width:auto;""/>

            <img src=""img/faces/15.png""
            style=""position:absolute;
             top:50%;
             left:85%;
             height:200px;
             width:auto;""/>

             <img src=""img/agent_choices_piechart/10.png""
            style=""position:absolute;
             top:27%;
             left:70%;
             height:30px;
             width:auto;""/>

             <img src=""img/agent_choices_piechart/70.png""
            style=""position:absolute;
             top:67%;
             left:70%;
             height:30px;
             width:auto;""/>
            </div>

            <div style=""width:200px;
            margin-bottom: 40px;
            margin-top: 50px;"">
            <p style=""top:40%;right:0%; position:relative;"">Choose your confidence for the jar which the beads are drawn from:</p>
            <div style=""width:10px; float: left;"">
            <p><img src=""img/red_jar_piechart.png"" style=""width:30px; top:43px""/></p>
            </div>
            <div style=""width: 25px; float: right;"">
            <p><img src=""img/green_jar_piechart.png"" style=""width:30px; top:43px""/></p>
            </div>
            </div>

            ","true","img/agent_choices_piechart/10.png","img/agent_choices_piechart/70.png","img/bead_samples/0.3.png","html-slider-response","3172","593347","0.0-3172.0","R_3nuTaeckaP246Wk"
"18683.89999985695","37","

            <div style=""z-index: -1"">

            <img src=""img/bead_samples/0.7.png""
             style=""position:absolute;
             top:55%;
             left:25%;
             transform: translate(-50%, -50%);
             height:300px;
             width:auto;
             ""/>

            <img src='img/jar_covered_opened.png'
            style=""position:absolute;
            z-index: -1;
            top:50%;
            left:53%;
            height: 600px;
            margin-top:-430px;
            margin-left:-290px""/>

            <img src=""img/faces/15.png""
            style=""position:absolute;
             top:10%;
             left:85%;
             height:200px;
             width:auto;""/>

            <img src=""img/faces/16.png""
            style=""position:absolute;
             top:50%;
             left:85%;
             height:200px;
             width:auto;""/>

             <img src=""img/agent_choices_piechart/55.png""
            style=""position:absolute;
             top:27%;
             left:70%;
             height:30px;
             width:auto;""/>

             <img src=""img/agent_choices_piechart/65.png""
            style=""position:absolute;
             top:67%;
             left:70%;
             height:30px;
             width:auto;""/>
            </div>

            <div style=""width:200px;
            margin-bottom: 40px;
            margin-top: 50px;"">
            <p style=""top:40%;right:0%; position:relative;"">Choose your confidence for the jar which the beads are drawn from:</p>
            <div style=""width:10px; float: left;"">
            <p><img src=""img/red_jar_piechart.png"" style=""width:30px; top:43px""/></p>
            </div>
            <div style=""width: 25px; float: right;"">
            <p><img src=""img/green_jar_piechart.png"" style=""width:30px; top:43px""/></p>
            </div>
            </div>

            ","true","img/agent_choices_piechart/55.png","img/agent_choices_piechart/65.png","img/bead_samples/0.7.png","html-slider-response","3234","612926","0.0-3234.0","R_3nuTaeckaP246Wk"
"15476.899999856949","35","

            <div style=""z-index: -1"">

            <img src=""img/bead_samples/0.8.png""
             style=""position:absolute;
             top:55%;
             left:25%;
             transform: translate(-50%, -50%);
             height:300px;
             width:auto;
             ""/>

            <img src='img/jar_covered_opened.png'
            style=""position:absolute;
            z-index: -1;
            top:50%;
            left:53%;
            height: 600px;
            margin-top:-430px;
            margin-left:-290px""/>

            <img src=""img/faces/16.png""
            style=""position:absolute;
             top:10%;
             left:85%;
             height:200px;
             width:auto;""/>

            <img src=""img/faces/17.png""
            style=""position:absolute;
             top:50%;
             left:85%;
             height:200px;
             width:auto;""/>

             <img src=""img/agent_choices_piechart/55.png""
            style=""position:absolute;
             top:27%;
             left:70%;
             height:30px;
             width:auto;""/>

             <img src=""img/agent_choices_piechart/60.png""
            style=""position:absolute;
             top:67%;
             left:70%;
             height:30px;
             width:auto;""/>
            </div>

            <div style=""width:200px;
            margin-bottom: 40px;
            margin-top: 50px;"">
            <p style=""top:40%;right:0%; position:relative;"">Choose your confidence for the jar which the beads are drawn from:</p>
            <div style=""width:10px; float: left;"">
            <p><img src=""img/red_jar_piechart.png"" style=""width:30px; top:43px""/></p>
            </div>
            <div style=""width: 25px; float: right;"">
            <p><img src=""img/green_jar_piechart.png"" style=""width:30px; top:43px""/></p>
            </div>
            </div>

            ","true","img/agent_choices_piechart/55.png","img/agent_choices_piechart/60.png","img/bead_samples/0.8.png","html-slider-response","3296","629397","0.0-3296.0","R_3nuTaeckaP246Wk"
"20217","68","

            <div style=""z-index: -1"">

            <img src=""img/bead_samples/0.4.png""
             style=""position:absolute;
             top:55%;
             left:25%;
             transform: translate(-50%, -50%);
             height:300px;
             width:auto;
             ""/>

            <img src='img/jar_covered_opened.png'
            style=""position:absolute;
            z-index: -1;
            top:50%;
            left:53%;
            height: 600px;
            margin-top:-430px;
            margin-left:-290px""/>

            <img src=""img/faces/17.png""
            style=""position:absolute;
             top:10%;
             left:85%;
             height:200px;
             width:auto;""/>

            <img src=""img/faces/18.png""
            style=""position:absolute;
             top:50%;
             left:85%;
             height:200px;
             width:auto;""/>

             <img src=""img/agent_choices_piechart/5.png""
            style=""position:absolute;
             top:27%;
             left:70%;
             height:30px;
             width:auto;""/>

             <img src=""img/agent_choices_piechart/85.png""
            style=""position:absolute;
             top:67%;
             left:70%;
             height:30px;
             width:auto;""/>
            </div>

            <div style=""width:200px;
            margin-bottom: 40px;
            margin-top: 50px;"">
            <p style=""top:40%;right:0%; position:relative;"">Choose your confidence for the jar which the beads are drawn from:</p>
            <div style=""width:10px; float: left;"">
            <p><img src=""img/red_jar_piechart.png"" style=""width:30px; top:43px""/></p>
            </div>
            <div style=""width: 25px; float: right;"">
            <p><img src=""img/green_jar_piechart.png"" style=""width:30px; top:43px""/></p>
            </div>
            </div>

            ","true","img/agent_choices_piechart/5.png","img/agent_choices_piechart/85.png","img/bead_samples/0.4.png","html-slider-response","3358","650525","0.0-3358.0","R_3nuTaeckaP246Wk"
"19154","33","

            <div style=""z-index: -1"">

            <img src=""img/bead_samples/0.7.png""
             style=""position:absolute;
             top:55%;
             left:25%;
             transform: translate(-50%, -50%);
             height:300px;
             width:auto;
             ""/>

            <img src='img/jar_covered_opened.png'
            style=""position:absolute;
            z-index: -1;
            top:50%;
            left:53%;
            height: 600px;
            margin-top:-430px;
            margin-left:-290px""/>

            <img src=""img/faces/18.png""
            style=""position:absolute;
             top:10%;
             left:85%;
             height:200px;
             width:auto;""/>

            <img src=""img/faces/19.png""
            style=""position:absolute;
             top:50%;
             left:85%;
             height:200px;
             width:auto;""/>

             <img src=""img/agent_choices_piechart/85.png""
            style=""position:absolute;
             top:27%;
             left:70%;
             height:30px;
             width:auto;""/>

             <img src=""img/agent_choices_piechart/40.png""
            style=""position:absolute;
             top:67%;
             left:70%;
             height:30px;
             width:auto;""/>
            </div>

            <div style=""width:200px;
            margin-bottom: 40px;
            margin-top: 50px;"">
            <p style=""top:40%;right:0%; position:relative;"">Choose your confidence for the jar which the beads are drawn from:</p>
            <div style=""width:10px; float: left;"">
            <p><img src=""img/red_jar_piechart.png"" style=""width:30px; top:43px""/></p>
            </div>
            <div style=""width: 25px; float: right;"">
            <p><img src=""img/green_jar_piechart.png"" style=""width:30px; top:43px""/></p>
            </div>
            </div>

            ","true","img/agent_choices_piechart/85.png","img/agent_choices_piechart/40.png","img/bead_samples/0.7.png","html-slider-response","3420","670655","0.0-3420.0","R_3nuTaeckaP246Wk"
"17087.599999904633","18","

            <div style=""z-index: -1"">

            <img src=""img/bead_samples/0.9.png""
             style=""position:absolute;
             top:55%;
             left:25%;
             transform: translate(-50%, -50%);
             height:300px;
             width:auto;
             ""/>

            <img src='img/jar_covered_opened.png'
            style=""position:absolute;
            z-index: -1;
            top:50%;
            left:53%;
            height: 600px;
            margin-top:-430px;
            margin-left:-290px""/>

            <img src=""img/faces/19.png""
            style=""position:absolute;
             top:10%;
             left:85%;
             height:200px;
             width:auto;""/>

            <img src=""img/faces/20.png""
            style=""position:absolute;
             top:50%;
             left:85%;
             height:200px;
             width:auto;""/>

             <img src=""img/agent_choices_piechart/90.png""
            style=""position:absolute;
             top:27%;
             left:70%;
             height:30px;
             width:auto;""/>

             <img src=""img/agent_choices_piechart/25.png""
            style=""position:absolute;
             top:67%;
             left:70%;
             height:30px;
             width:auto;""/>
            </div>

            <div style=""width:200px;
            margin-bottom: 40px;
            margin-top: 50px;"">
            <p style=""top:40%;right:0%; position:relative;"">Choose your confidence for the jar which the beads are drawn from:</p>
            <div style=""width:10px; float: left;"">
            <p><img src=""img/red_jar_piechart.png"" style=""width:30px; top:43px""/></p>
            </div>
            <div style=""width: 25px; float: right;"">
            <p><img src=""img/green_jar_piechart.png"" style=""width:30px; top:43px""/></p>
            </div>
            </div>

            ","true","img/agent_choices_piechart/90.png","img/agent_choices_piechart/25.png","img/bead_samples/0.9.png","html-slider-response","3482","688666","0.0-3482.0","R_3nuTaeckaP246Wk"
"14145.599999904633","77","

            <div style=""z-index: -1"">

            <img src=""img/bead_samples/0.3.png""
             style=""position:absolute;
             top:55%;
             left:25%;
             transform: translate(-50%, -50%);
             height:300px;
             width:auto;
             ""/>

            <img src='img/jar_covered_opened.png'
            style=""position:absolute;
            z-index: -1;
            top:50%;
            left:53%;
            height: 600px;
            margin-top:-430px;
            margin-left:-290px""/>

            <img src=""img/faces/1.png""
            style=""position:absolute;
             top:10%;
             left:85%;
             height:200px;
             width:auto;""/>

            <img src=""img/faces/2.png""
            style=""position:absolute;
             top:50%;
             left:85%;
             height:200px;
             width:auto;""/>

             <img src=""img/agent_choices_piechart/35.png""
            style=""position:absolute;
             top:27%;
             left:70%;
             height:30px;
             width:auto;""/>

             <img src=""img/agent_choices_piechart/75.png""
            style=""position:absolute;
             top:67%;
             left:70%;
             height:30px;
             width:auto;""/>
            </div>

            <div style=""width:200px;
            margin-bottom: 40px;
            margin-top: 50px;"">
            <p style=""top:40%;right:0%; position:relative;"">Choose your confidence for the jar which the beads are drawn from:</p>
            <div style=""width:10px; float: left;"">
            <p><img src=""img/red_jar_piechart.png"" style=""width:30px; top:43px""/></p>
            </div>
            <div style=""width: 25px; float: right;"">
            <p><img src=""img/green_jar_piechart.png"" style=""width:30px; top:43px""/></p>
            </div>
            </div>

            ","true","img/agent_choices_piechart/35.png","img/agent_choices_piechart/75.png","img/bead_samples/0.3.png","html-slider-response","3544","703804","0.0-3544.0","R_3nuTaeckaP246Wk"
"15507","38","

            <div style=""z-index: -1"">

            <img src=""img/bead_samples/0.6.png""
             style=""position:absolute;
             top:55%;
             left:25%;
             transform: translate(-50%, -50%);
             height:300px;
             width:auto;
             ""/>

            <img src='img/jar_covered_opened.png'
            style=""position:absolute;
            z-index: -1;
            top:50%;
            left:53%;
            height: 600px;
            margin-top:-430px;
            margin-left:-290px""/>

            <img src=""img/faces/2.png""
            style=""position:absolute;
             top:10%;
             left:85%;
             height:200px;
             width:auto;""/>

            <img src=""img/faces/3.png""
            style=""position:absolute;
             top:50%;
             left:85%;
             height:200px;
             width:auto;""/>

             <img src=""img/agent_choices_piechart/45.png""
            style=""position:absolute;
             top:27%;
             left:70%;
             height:30px;
             width:auto;""/>

             <img src=""img/agent_choices_piechart/35.png""
            style=""position:absolute;
             top:67%;
             left:70%;
             height:30px;
             width:auto;""/>
            </div>

            <div style=""width:200px;
            margin-bottom: 40px;
            margin-top: 50px;"">
            <p style=""top:40%;right:0%; position:relative;"">Choose your confidence for the jar which the beads are drawn from:</p>
            <div style=""width:10px; float: left;"">
            <p><img src=""img/red_jar_piechart.png"" style=""width:30px; top:43px""/></p>
            </div>
            <div style=""width: 25px; float: right;"">
            <p><img src=""img/green_jar_piechart.png"" style=""width:30px; top:43px""/></p>
            </div>
            </div>

            ","true","img/agent_choices_piechart/45.png","img/agent_choices_piechart/35.png","img/bead_samples/0.6.png","html-slider-response","3607","726958","0.0-3607.0","R_3nuTaeckaP246Wk"
"14077","63","

            <div style=""z-index: -1"">

            <img src=""img/bead_samples/0.3.png""
             style=""position:absolute;
             top:55%;
             left:25%;
             transform: translate(-50%, -50%);
             height:300px;
             width:auto;
             ""/>

            <img src='img/jar_covered_opened.png'
            style=""position:absolute;
            z-index: -1;
            top:50%;
            left:53%;
            height: 600px;
            margin-top:-430px;
            margin-left:-290px""/>

            <img src=""img/faces/3.png""
            style=""position:absolute;
             top:10%;
             left:85%;
             height:200px;
             width:auto;""/>

            <img src=""img/faces/4.png""
            style=""position:absolute;
             top:50%;
             left:85%;
             height:200px;
             width:auto;""/>

             <img src=""img/agent_choices_piechart/15.png""
            style=""position:absolute;
             top:27%;
             left:70%;
             height:30px;
             width:auto;""/>

             <img src=""img/agent_choices_piechart/80.png""
            style=""position:absolute;
             top:67%;
             left:70%;
             height:30px;
             width:auto;""/>
            </div>

            <div style=""width:200px;
            margin-bottom: 40px;
            margin-top: 50px;"">
            <p style=""top:40%;right:0%; position:relative;"">Choose your confidence for the jar which the beads are drawn from:</p>
            <div style=""width:10px; float: left;"">
            <p><img src=""img/red_jar_piechart.png"" style=""width:30px; top:43px""/></p>
            </div>
            <div style=""width: 25px; float: right;"">
            <p><img src=""img/green_jar_piechart.png"" style=""width:30px; top:43px""/></p>
            </div>
            </div>

            ","true","img/agent_choices_piechart/15.png","img/agent_choices_piechart/80.png","img/bead_samples/0.3.png","html-slider-response","3669","741987","0.0-3669.0","R_3nuTaeckaP246Wk"
"33952.59999990463","49","

            <div style=""z-index: -1"">

            <img src=""img/bead_samples/0.7.png""
             style=""position:absolute;
             top:55%;
             left:25%;
             transform: translate(-50%, -50%);
             height:300px;
             width:auto;
             ""/>

            <img src='img/jar_covered_opened.png'
            style=""position:absolute;
            z-index: -1;
            top:50%;
            left:53%;
            height: 600px;
            margin-top:-430px;
            margin-left:-290px""/>

            <img src=""img/faces/4.png""
            style=""position:absolute;
             top:10%;
             left:85%;
             height:200px;
             width:auto;""/>

            <img src=""img/faces/5.png""
            style=""position:absolute;
             top:50%;
             left:85%;
             height:200px;
             width:auto;""/>

             <img src=""img/agent_choices_piechart/80.png""
            style=""position:absolute;
             top:27%;
             left:70%;
             height:30px;
             width:auto;""/>

             <img src=""img/agent_choices_piechart/65.png""
            style=""position:absolute;
             top:67%;
             left:70%;
             height:30px;
             width:auto;""/>
            </div>

            <div style=""width:200px;
            margin-bottom: 40px;
            margin-top: 50px;"">
            <p style=""top:40%;right:0%; position:relative;"">Choose your confidence for the jar which the beads are drawn from:</p>
            <div style=""width:10px; float: left;"">
            <p><img src=""img/red_jar_piechart.png"" style=""width:30px; top:43px""/></p>
            </div>
            <div style=""width: 25px; float: right;"">
            <p><img src=""img/green_jar_piechart.png"" style=""width:30px; top:43px""/></p>
            </div>
            </div>

            ","true","img/agent_choices_piechart/80.png","img/agent_choices_piechart/65.png","img/bead_samples/0.7.png","html-slider-response","3731","776860","0.0-3731.0","R_3nuTaeckaP246Wk"
"18689.400000095367","50","

            <div style=""z-index: -1"">

            <img src=""img/bead_samples/0.4.png""
             style=""position:absolute;
             top:55%;
             left:25%;
             transform: translate(-50%, -50%);
             height:300px;
             width:auto;
             ""/>

            <img src='img/jar_covered_opened.png'
            style=""position:absolute;
            z-index: -1;
            top:50%;
            left:53%;
            height: 600px;
            margin-top:-430px;
            margin-left:-290px""/>

            <img src=""img/faces/5.png""
            style=""position:absolute;
             top:10%;
             left:85%;
             height:200px;
             width:auto;""/>

            <img src=""img/faces/6.png""
            style=""position:absolute;
             top:50%;
             left:85%;
             height:200px;
             width:auto;""/>

             <img src=""img/agent_choices_piechart/85.png""
            style=""position:absolute;
             top:27%;
             left:70%;
             height:30px;
             width:auto;""/>

             <img src=""img/agent_choices_piechart/30.png""
            style=""position:absolute;
             top:67%;
             left:70%;
             height:30px;
             width:auto;""/>
            </div>

            <div style=""width:200px;
            margin-bottom: 40px;
            margin-top: 50px;"">
            <p style=""top:40%;right:0%; position:relative;"">Choose your confidence for the jar which the beads are drawn from:</p>
            <div style=""width:10px; float: left;"">
            <p><img src=""img/red_jar_piechart.png"" style=""width:30px; top:43px""/></p>
            </div>
            <div style=""width: 25px; float: right;"">
            <p><img src=""img/green_jar_piechart.png"" style=""width:30px; top:43px""/></p>
            </div>
            </div>

            ","true","img/agent_choices_piechart/85.png","img/agent_choices_piechart/30.png","img/bead_samples/0.4.png","html-slider-response","3793","796510","0.0-3793.0","R_3nuTaeckaP246Wk"
"26296.400000095367","41","

            <div style=""z-index: -1"">

            <img src=""img/bead_samples/0.6.png""
             style=""position:absolute;
             top:55%;
             left:25%;
             transform: translate(-50%, -50%);
             height:300px;
             width:auto;
             ""/>

            <img src='img/jar_covered_opened.png'
            style=""position:absolute;
            z-index: -1;
            top:50%;
            left:53%;
            height: 600px;
            margin-top:-430px;
            margin-left:-290px""/>

            <img src=""img/faces/6.png""
            style=""position:absolute;
             top:10%;
             left:85%;
             height:200px;
             width:auto;""/>

            <img src=""img/faces/7.png""
            style=""position:absolute;
             top:50%;
             left:85%;
             height:200px;
             width:auto;""/>

             <img src=""img/agent_choices_piechart/10.png""
            style=""position:absolute;
             top:27%;
             left:70%;
             height:30px;
             width:auto;""/>

             <img src=""img/agent_choices_piechart/80.png""
            style=""position:absolute;
             top:67%;
             left:70%;
             height:30px;
             width:auto;""/>
            </div>

            <div style=""width:200px;
            margin-bottom: 40px;
            margin-top: 50px;"">
            <p style=""top:40%;right:0%; position:relative;"">Choose your confidence for the jar which the beads are drawn from:</p>
            <div style=""width:10px; float: left;"">
            <p><img src=""img/red_jar_piechart.png"" style=""width:30px; top:43px""/></p>
            </div>
            <div style=""width: 25px; float: right;"">
            <p><img src=""img/green_jar_piechart.png"" style=""width:30px; top:43px""/></p>
            </div>
            </div>

            ","true","img/agent_choices_piechart/10.png","img/agent_choices_piechart/80.png","img/bead_samples/0.6.png","html-slider-response","3855","823739","0.0-3855.0","R_3nuTaeckaP246Wk"
"20414.60000014305","13","

            <div style=""z-index: -1"">

            <img src=""img/bead_samples/0.8.png""
             style=""position:absolute;
             top:55%;
             left:25%;
             transform: translate(-50%, -50%);
             height:300px;
             width:auto;
             ""/>

            <img src='img/jar_covered_opened.png'
            style=""position:absolute;
            z-index: -1;
            top:50%;
            left:53%;
            height: 600px;
            margin-top:-430px;
            margin-left:-290px""/>

            <img src=""img/faces/7.png""
            style=""position:absolute;
             top:10%;
             left:85%;
             height:200px;
             width:auto;""/>

            <img src=""img/faces/8.png""
            style=""position:absolute;
             top:50%;
             left:85%;
             height:200px;
             width:auto;""/>

             <img src=""img/agent_choices_piechart/15.png""
            style=""position:absolute;
             top:27%;
             left:70%;
             height:30px;
             width:auto;""/>

             <img src=""img/agent_choices_piechart/40.png""
            style=""position:absolute;
             top:67%;
             left:70%;
             height:30px;
             width:auto;""/>
            </div>

            <div style=""width:200px;
            margin-bottom: 40px;
            margin-top: 50px;"">
            <p style=""top:40%;right:0%; position:relative;"">Choose your confidence for the jar which the beads are drawn from:</p>
            <div style=""width:10px; float: left;"">
            <p><img src=""img/red_jar_piechart.png"" style=""width:30px; top:43px""/></p>
            </div>
            <div style=""width: 25px; float: right;"">
            <p><img src=""img/green_jar_piechart.png"" style=""width:30px; top:43px""/></p>
            </div>
            </div>

            ","true","img/agent_choices_piechart/15.png","img/agent_choices_piechart/40.png","img/bead_samples/0.8.png","html-slider-response","3917","845078","0.0-3917.0","R_3nuTaeckaP246Wk"
"12587.099999904633","10","

            <div style=""z-index: -1"">

            <img src=""img/bead_samples/0.9.png""
             style=""position:absolute;
             top:55%;
             left:25%;
             transform: translate(-50%, -50%);
             height:300px;
             width:auto;
             ""/>

            <img src='img/jar_covered_opened.png'
            style=""position:absolute;
            z-index: -1;
            top:50%;
            left:53%;
            height: 600px;
            margin-top:-430px;
            margin-left:-290px""/>

            <img src=""img/faces/8.png""
            style=""position:absolute;
             top:10%;
             left:85%;
             height:200px;
             width:auto;""/>

            <img src=""img/faces/9.png""
            style=""position:absolute;
             top:50%;
             left:85%;
             height:200px;
             width:auto;""/>

             <img src=""img/agent_choices_piechart/90.png""
            style=""position:absolute;
             top:27%;
             left:70%;
             height:30px;
             width:auto;""/>

             <img src=""img/agent_choices_piechart/15.png""
            style=""position:absolute;
             top:67%;
             left:70%;
             height:30px;
             width:auto;""/>
            </div>

            <div style=""width:200px;
            margin-bottom: 40px;
            margin-top: 50px;"">
            <p style=""top:40%;right:0%; position:relative;"">Choose your confidence for the jar which the beads are drawn from:</p>
            <div style=""width:10px; float: left;"">
            <p><img src=""img/red_jar_piechart.png"" style=""width:30px; top:43px""/></p>
            </div>
            <div style=""width: 25px; float: right;"">
            <p><img src=""img/green_jar_piechart.png"" style=""width:30px; top:43px""/></p>
            </div>
            </div>

            ","true","img/agent_choices_piechart/90.png","img/agent_choices_piechart/15.png","img/bead_samples/0.9.png","html-slider-response","3979","858679","0.0-3979.0","R_3nuTaeckaP246Wk"
"15695.700000047684","90","

            <div style=""z-index: -1"">

            <img src=""img/bead_samples/0.1.png""
             style=""position:absolute;
             top:55%;
             left:25%;
             transform: translate(-50%, -50%);
             height:300px;
             width:auto;
             ""/>

            <img src='img/jar_covered_opened.png'
            style=""position:absolute;
            z-index: -1;
            top:50%;
            left:53%;
            height: 600px;
            margin-top:-430px;
            margin-left:-290px""/>

            <img src=""img/faces/9.png""
            style=""position:absolute;
             top:10%;
             left:85%;
             height:200px;
             width:auto;""/>

            <img src=""img/faces/10.png""
            style=""position:absolute;
             top:50%;
             left:85%;
             height:200px;
             width:auto;""/>

             <img src=""img/agent_choices_piechart/55.png""
            style=""position:absolute;
             top:27%;
             left:70%;
             height:30px;
             width:auto;""/>

             <img src=""img/agent_choices_piechart/75.png""
            style=""position:absolute;
             top:67%;
             left:70%;
             height:30px;
             width:auto;""/>
            </div>

            <div style=""width:200px;
            margin-bottom: 40px;
            margin-top: 50px;"">
            <p style=""top:40%;right:0%; position:relative;"">Choose your confidence for the jar which the beads are drawn from:</p>
            <div style=""width:10px; float: left;"">
            <p><img src=""img/red_jar_piechart.png"" style=""width:30px; top:43px""/></p>
            </div>
            <div style=""width: 25px; float: right;"">
            <p><img src=""img/green_jar_piechart.png"" style=""width:30px; top:43px""/></p>
            </div>
            </div>

            ","true","img/agent_choices_piechart/55.png","img/agent_choices_piechart/75.png","img/bead_samples/0.1.png","html-slider-response","4041","875277","0.0-4041.0","R_3nuTaeckaP246Wk"
"14310.5","22","

            <div style=""z-index: -1"">

            <img src=""img/bead_samples/0.8.png""
             style=""position:absolute;
             top:55%;
             left:25%;
             transform: translate(-50%, -50%);
             height:300px;
             width:auto;
             ""/>

            <img src='img/jar_covered_opened.png'
            style=""position:absolute;
            z-index: -1;
            top:50%;
            left:53%;
            height: 600px;
            margin-top:-430px;
            margin-left:-290px""/>

            <img src=""img/faces/10.png""
            style=""position:absolute;
             top:10%;
             left:85%;
             height:200px;
             width:auto;""/>

            <img src=""img/faces/11.png""
            style=""position:absolute;
             top:50%;
             left:85%;
             height:200px;
             width:auto;""/>

             <img src=""img/agent_choices_piechart/45.png""
            style=""position:absolute;
             top:27%;
             left:70%;
             height:30px;
             width:auto;""/>

             <img src=""img/agent_choices_piechart/75.png""
            style=""position:absolute;
             top:67%;
             left:70%;
             height:30px;
             width:auto;""/>
            </div>

            <div style=""width:200px;
            margin-bottom: 40px;
            margin-top: 50px;"">
            <p style=""top:40%;right:0%; position:relative;"">Choose your confidence for the jar which the beads are drawn from:</p>
            <div style=""width:10px; float: left;"">
            <p><img src=""img/red_jar_piechart.png"" style=""width:30px; top:43px""/></p>
            </div>
            <div style=""width: 25px; float: right;"">
            <p><img src=""img/green_jar_piechart.png"" style=""width:30px; top:43px""/></p>
            </div>
            </div>

            ","true","img/agent_choices_piechart/45.png","img/agent_choices_piechart/75.png","img/bead_samples/0.8.png","html-slider-response","4103","890391","0.0-4103.0","R_3nuTaeckaP246Wk"
"15192.399999856949","50","

            <div style=""z-index: -1"">

            <img src=""img/bead_samples/0.5.png""
             style=""position:absolute;
             top:55%;
             left:25%;
             transform: translate(-50%, -50%);
             height:300px;
             width:auto;
             ""/>

            <img src='img/jar_covered_opened.png'
            style=""position:absolute;
            z-index: -1;
            top:50%;
            left:53%;
            height: 600px;
            margin-top:-430px;
            margin-left:-290px""/>

            <img src=""img/faces/11.png""
            style=""position:absolute;
             top:10%;
             left:85%;
             height:200px;
             width:auto;""/>

            <img src=""img/faces/12.png""
            style=""position:absolute;
             top:50%;
             left:85%;
             height:200px;
             width:auto;""/>

             <img src=""img/agent_choices_piechart/50.png""
            style=""position:absolute;
             top:27%;
             left:70%;
             height:30px;
             width:auto;""/>

             <img src=""img/agent_choices_piechart/70.png""
            style=""position:absolute;
             top:67%;
             left:70%;
             height:30px;
             width:auto;""/>
            </div>

            <div style=""width:200px;
            margin-bottom: 40px;
            margin-top: 50px;"">
            <p style=""top:40%;right:0%; position:relative;"">Choose your confidence for the jar which the beads are drawn from:</p>
            <div style=""width:10px; float: left;"">
            <p><img src=""img/red_jar_piechart.png"" style=""width:30px; top:43px""/></p>
            </div>
            <div style=""width: 25px; float: right;"">
            <p><img src=""img/green_jar_piechart.png"" style=""width:30px; top:43px""/></p>
            </div>
            </div>

            ","true","img/agent_choices_piechart/50.png","img/agent_choices_piechart/70.png","img/bead_samples/0.5.png","html-slider-response","4165","906499","0.0-4165.0","R_3nuTaeckaP246Wk"
"10756.900000095367","74","

            <div style=""z-index: -1"">

            <img src=""img/bead_samples/0.1.png""
             style=""position:absolute;
             top:55%;
             left:25%;
             transform: translate(-50%, -50%);
             height:300px;
             width:auto;
             ""/>

            <img src='img/jar_covered_opened.png'
            style=""position:absolute;
            z-index: -1;
            top:50%;
            left:53%;
            height: 600px;
            margin-top:-430px;
            margin-left:-290px""/>

            <img src=""img/faces/12.png""
            style=""position:absolute;
             top:10%;
             left:85%;
             height:200px;
             width:auto;""/>

            <img src=""img/faces/13.png""
            style=""position:absolute;
             top:50%;
             left:85%;
             height:200px;
             width:auto;""/>

             <img src=""img/agent_choices_piechart/20.png""
            style=""position:absolute;
             top:27%;
             left:70%;
             height:30px;
             width:auto;""/>

             <img src=""img/agent_choices_piechart/75.png""
            style=""position:absolute;
             top:67%;
             left:70%;
             height:30px;
             width:auto;""/>
            </div>

            <div style=""width:200px;
            margin-bottom: 40px;
            margin-top: 50px;"">
            <p style=""top:40%;right:0%; position:relative;"">Choose your confidence for the jar which the beads are drawn from:</p>
            <div style=""width:10px; float: left;"">
            <p><img src=""img/red_jar_piechart.png"" style=""width:30px; top:43px""/></p>
            </div>
            <div style=""width: 25px; float: right;"">
            <p><img src=""img/green_jar_piechart.png"" style=""width:30px; top:43px""/></p>
            </div>
            </div>

            ","true","img/agent_choices_piechart/20.png","img/agent_choices_piechart/75.png","img/bead_samples/0.1.png","html-slider-response","4227","918216","0.0-4227.0","R_3nuTaeckaP246Wk"
"10278.599999904633","84","

            <div style=""z-index: -1"">

            <img src=""img/bead_samples/0.1.png""
             style=""position:absolute;
             top:55%;
             left:25%;
             transform: translate(-50%, -50%);
             height:300px;
             width:auto;
             ""/>

            <img src='img/jar_covered_opened.png'
            style=""position:absolute;
            z-index: -1;
            top:50%;
            left:53%;
            height: 600px;
            margin-top:-430px;
            margin-left:-290px""/>

            <img src=""img/faces/13.png""
            style=""position:absolute;
             top:10%;
             left:85%;
             height:200px;
             width:auto;""/>

            <img src=""img/faces/14.png""
            style=""position:absolute;
             top:50%;
             left:85%;
             height:200px;
             width:auto;""/>

             <img src=""img/agent_choices_piechart/75.png""
            style=""position:absolute;
             top:27%;
             left:70%;
             height:30px;
             width:auto;""/>

             <img src=""img/agent_choices_piechart/75.png""
            style=""position:absolute;
             top:67%;
             left:70%;
             height:30px;
             width:auto;""/>
            </div>

            <div style=""width:200px;
            margin-bottom: 40px;
            margin-top: 50px;"">
            <p style=""top:40%;right:0%; position:relative;"">Choose your confidence for the jar which the beads are drawn from:</p>
            <div style=""width:10px; float: left;"">
            <p><img src=""img/red_jar_piechart.png"" style=""width:30px; top:43px""/></p>
            </div>
            <div style=""width: 25px; float: right;"">
            <p><img src=""img/green_jar_piechart.png"" style=""width:30px; top:43px""/></p>
            </div>
            </div>

            ","true","img/agent_choices_piechart/75.png","img/agent_choices_piechart/75.png","img/bead_samples/0.1.png","html-slider-response","4289","929507","0.0-4289.0","R_3nuTaeckaP246Wk"
"13699.5","66","

            <div style=""z-index: -1"">

            <img src=""img/bead_samples/0.4.png""
             style=""position:absolute;
             top:55%;
             left:25%;
             transform: translate(-50%, -50%);
             height:300px;
             width:auto;
             ""/>

            <img src='img/jar_covered_opened.png'
            style=""position:absolute;
            z-index: -1;
            top:50%;
            left:53%;
            height: 600px;
            margin-top:-430px;
            margin-left:-290px""/>

            <img src=""img/faces/14.png""
            style=""position:absolute;
             top:10%;
             left:85%;
             height:200px;
             width:auto;""/>

            <img src=""img/faces/15.png""
            style=""position:absolute;
             top:50%;
             left:85%;
             height:200px;
             width:auto;""/>

             <img src=""img/agent_choices_piechart/45.png""
            style=""position:absolute;
             top:27%;
             left:70%;
             height:30px;
             width:auto;""/>

             <img src=""img/agent_choices_piechart/65.png""
            style=""position:absolute;
             top:67%;
             left:70%;
             height:30px;
             width:auto;""/>
            </div>

            <div style=""width:200px;
            margin-bottom: 40px;
            margin-top: 50px;"">
            <p style=""top:40%;right:0%; position:relative;"">Choose your confidence for the jar which the beads are drawn from:</p>
            <div style=""width:10px; float: left;"">
            <p><img src=""img/red_jar_piechart.png"" style=""width:30px; top:43px""/></p>
            </div>
            <div style=""width: 25px; float: right;"">
            <p><img src=""img/green_jar_piechart.png"" style=""width:30px; top:43px""/></p>
            </div>
            </div>

            ","true","img/agent_choices_piechart/45.png","img/agent_choices_piechart/65.png","img/bead_samples/0.4.png","html-slider-response","4351","944192","0.0-4351.0","R_3nuTaeckaP246Wk"
"13876","37","

            <div style=""z-index: -1"">

            <img src=""img/bead_samples/0.5.png""
             style=""position:absolute;
             top:55%;
             left:25%;
             transform: translate(-50%, -50%);
             height:300px;
             width:auto;
             ""/>

            <img src='img/jar_covered_opened.png'
            style=""position:absolute;
            z-index: -1;
            top:50%;
            left:53%;
            height: 600px;
            margin-top:-430px;
            margin-left:-290px""/>

            <img src=""img/faces/15.png""
            style=""position:absolute;
             top:10%;
             left:85%;
             height:200px;
             width:auto;""/>

            <img src=""img/faces/16.png""
            style=""position:absolute;
             top:50%;
             left:85%;
             height:200px;
             width:auto;""/>

             <img src=""img/agent_choices_piechart/30.png""
            style=""position:absolute;
             top:27%;
             left:70%;
             height:30px;
             width:auto;""/>

             <img src=""img/agent_choices_piechart/20.png""
            style=""position:absolute;
             top:67%;
             left:70%;
             height:30px;
             width:auto;""/>
            </div>

            <div style=""width:200px;
            margin-bottom: 40px;
            margin-top: 50px;"">
            <p style=""top:40%;right:0%; position:relative;"">Choose your confidence for the jar which the beads are drawn from:</p>
            <div style=""width:10px; float: left;"">
            <p><img src=""img/red_jar_piechart.png"" style=""width:30px; top:43px""/></p>
            </div>
            <div style=""width: 25px; float: right;"">
            <p><img src=""img/green_jar_piechart.png"" style=""width:30px; top:43px""/></p>
            </div>
            </div>

            ","true","img/agent_choices_piechart/30.png","img/agent_choices_piechart/20.png","img/bead_samples/0.5.png","html-slider-response","4413","959063","0.0-4413.0","R_3nuTaeckaP246Wk"
"16961.5","26","

            <div style=""z-index: -1"">

            <img src=""img/bead_samples/0.8.png""
             style=""position:absolute;
             top:55%;
             left:25%;
             transform: translate(-50%, -50%);
             height:300px;
             width:auto;
             ""/>

            <img src='img/jar_covered_opened.png'
            style=""position:absolute;
            z-index: -1;
            top:50%;
            left:53%;
            height: 600px;
            margin-top:-430px;
            margin-left:-290px""/>

            <img src=""img/faces/16.png""
            style=""position:absolute;
             top:10%;
             left:85%;
             height:200px;
             width:auto;""/>

            <img src=""img/faces/17.png""
            style=""position:absolute;
             top:50%;
             left:85%;
             height:200px;
             width:auto;""/>

             <img src=""img/agent_choices_piechart/20.png""
            style=""position:absolute;
             top:27%;
             left:70%;
             height:30px;
             width:auto;""/>

             <img src=""img/agent_choices_piechart/60.png""
            style=""position:absolute;
             top:67%;
             left:70%;
             height:30px;
             width:auto;""/>
            </div>

            <div style=""width:200px;
            margin-bottom: 40px;
            margin-top: 50px;"">
            <p style=""top:40%;right:0%; position:relative;"">Choose your confidence for the jar which the beads are drawn from:</p>
            <div style=""width:10px; float: left;"">
            <p><img src=""img/red_jar_piechart.png"" style=""width:30px; top:43px""/></p>
            </div>
            <div style=""width: 25px; float: right;"">
            <p><img src=""img/green_jar_piechart.png"" style=""width:30px; top:43px""/></p>
            </div>
            </div>

            ","true","img/agent_choices_piechart/20.png","img/agent_choices_piechart/60.png","img/bead_samples/0.8.png","html-slider-response","4475","976961","0.0-4475.0","R_3nuTaeckaP246Wk"
"12861.5","57","

            <div style=""z-index: -1"">

            <img src=""img/bead_samples/0.4.png""
             style=""position:absolute;
             top:55%;
             left:25%;
             transform: translate(-50%, -50%);
             height:300px;
             width:auto;
             ""/>

            <img src='img/jar_covered_opened.png'
            style=""position:absolute;
            z-index: -1;
            top:50%;
            left:53%;
            height: 600px;
            margin-top:-430px;
            margin-left:-290px""/>

            <img src=""img/faces/17.png""
            style=""position:absolute;
             top:10%;
             left:85%;
             height:200px;
             width:auto;""/>

            <img src=""img/faces/18.png""
            style=""position:absolute;
             top:50%;
             left:85%;
             height:200px;
             width:auto;""/>

             <img src=""img/agent_choices_piechart/10.png""
            style=""position:absolute;
             top:27%;
             left:70%;
             height:30px;
             width:auto;""/>

             <img src=""img/agent_choices_piechart/80.png""
            style=""position:absolute;
             top:67%;
             left:70%;
             height:30px;
             width:auto;""/>
            </div>

            <div style=""width:200px;
            margin-bottom: 40px;
            margin-top: 50px;"">
            <p style=""top:40%;right:0%; position:relative;"">Choose your confidence for the jar which the beads are drawn from:</p>
            <div style=""width:10px; float: left;"">
            <p><img src=""img/red_jar_piechart.png"" style=""width:30px; top:43px""/></p>
            </div>
            <div style=""width: 25px; float: right;"">
            <p><img src=""img/green_jar_piechart.png"" style=""width:30px; top:43px""/></p>
            </div>
            </div>

            ","true","img/agent_choices_piechart/10.png","img/agent_choices_piechart/80.png","img/bead_samples/0.4.png","html-slider-response","4537","990923","0.0-4537.0","R_3nuTaeckaP246Wk"
"8232.700000047684","80","

            <div style=""z-index: -1"">

            <img src=""img/bead_samples/0.3.png""
             style=""position:absolute;
             top:55%;
             left:25%;
             transform: translate(-50%, -50%);
             height:300px;
             width:auto;
             ""/>

            <img src='img/jar_covered_opened.png'
            style=""position:absolute;
            z-index: -1;
            top:50%;
            left:53%;
            height: 600px;
            margin-top:-430px;
            margin-left:-290px""/>

            <img src=""img/faces/18.png""
            style=""position:absolute;
             top:10%;
             left:85%;
             height:200px;
             width:auto;""/>

            <img src=""img/faces/19.png""
            style=""position:absolute;
             top:50%;
             left:85%;
             height:200px;
             width:auto;""/>

             <img src=""img/agent_choices_piechart/75.png""
            style=""position:absolute;
             top:27%;
             left:70%;
             height:30px;
             width:auto;""/>

             <img src=""img/agent_choices_piechart/75.png""
            style=""position:absolute;
             top:67%;
             left:70%;
             height:30px;
             width:auto;""/>
            </div>

            <div style=""width:200px;
            margin-bottom: 40px;
            margin-top: 50px;"">
            <p style=""top:40%;right:0%; position:relative;"">Choose your confidence for the jar which the beads are drawn from:</p>
            <div style=""width:10px; float: left;"">
            <p><img src=""img/red_jar_piechart.png"" style=""width:30px; top:43px""/></p>
            </div>
            <div style=""width: 25px; float: right;"">
            <p><img src=""img/green_jar_piechart.png"" style=""width:30px; top:43px""/></p>
            </div>
            </div>

            ","true","img/agent_choices_piechart/75.png","img/agent_choices_piechart/75.png","img/bead_samples/0.3.png","html-slider-response","4599","1000082","0.0-4599.0","R_3nuTaeckaP246Wk"
"8819.599999904633","79","

            <div style=""z-index: -1"">

            <img src=""img/bead_samples/0.1.png""
             style=""position:absolute;
             top:55%;
             left:25%;
             transform: translate(-50%, -50%);
             height:300px;
             width:auto;
             ""/>

            <img src='img/jar_covered_opened.png'
            style=""position:absolute;
            z-index: -1;
            top:50%;
            left:53%;
            height: 600px;
            margin-top:-430px;
            margin-left:-290px""/>

            <img src=""img/faces/19.png""
            style=""position:absolute;
             top:10%;
             left:85%;
             height:200px;
             width:auto;""/>

            <img src=""img/faces/20.png""
            style=""position:absolute;
             top:50%;
             left:85%;
             height:200px;
             width:auto;""/>

             <img src=""img/agent_choices_piechart/40.png""
            style=""position:absolute;
             top:27%;
             left:70%;
             height:30px;
             width:auto;""/>

             <img src=""img/agent_choices_piechart/75.png""
            style=""position:absolute;
             top:67%;
             left:70%;
             height:30px;
             width:auto;""/>
            </div>

            <div style=""width:200px;
            margin-bottom: 40px;
            margin-top: 50px;"">
            <p style=""top:40%;right:0%; position:relative;"">Choose your confidence for the jar which the beads are drawn from:</p>
            <div style=""width:10px; float: left;"">
            <p><img src=""img/red_jar_piechart.png"" style=""width:30px; top:43px""/></p>
            </div>
            <div style=""width: 25px; float: right;"">
            <p><img src=""img/green_jar_piechart.png"" style=""width:30px; top:43px""/></p>
            </div>
            </div>

            ","true","img/agent_choices_piechart/40.png","img/agent_choices_piechart/75.png","img/bead_samples/0.1.png","html-slider-response","4661","1009806","0.0-4661.0","R_3nuTaeckaP246Wk"
"12920","78","

            <div style=""z-index: -1"">

            <img src=""img/bead_samples/0.1.png""
             style=""position:absolute;
             top:55%;
             left:25%;
             transform: translate(-50%, -50%);
             height:300px;
             width:auto;
             ""/>

            <img src='img/jar_covered_opened.png'
            style=""position:absolute;
            z-index: -1;
            top:50%;
            left:53%;
            height: 600px;
            margin-top:-430px;
            margin-left:-290px""/>

            <img src=""img/faces/1.png""
            style=""position:absolute;
             top:10%;
             left:85%;
             height:200px;
             width:auto;""/>

            <img src=""img/faces/2.png""
            style=""position:absolute;
             top:50%;
             left:85%;
             height:200px;
             width:auto;""/>

             <img src=""img/agent_choices_piechart/25.png""
            style=""position:absolute;
             top:27%;
             left:70%;
             height:30px;
             width:auto;""/>

             <img src=""img/agent_choices_piechart/65.png""
            style=""position:absolute;
             top:67%;
             left:70%;
             height:30px;
             width:auto;""/>
            </div>

            <div style=""width:200px;
            margin-bottom: 40px;
            margin-top: 50px;"">
            <p style=""top:40%;right:0%; position:relative;"">Choose your confidence for the jar which the beads are drawn from:</p>
            <div style=""width:10px; float: left;"">
            <p><img src=""img/red_jar_piechart.png"" style=""width:30px; top:43px""/></p>
            </div>
            <div style=""width: 25px; float: right;"">
            <p><img src=""img/green_jar_piechart.png"" style=""width:30px; top:43px""/></p>
            </div>
            </div>

            ","true","img/agent_choices_piechart/25.png","img/agent_choices_piechart/65.png","img/bead_samples/0.1.png","html-slider-response","4723","1023644","0.0-4723.0","R_3nuTaeckaP246Wk"
"9875.700000047684","63","

            <div style=""z-index: -1"">

            <img src=""img/bead_samples/0.4.png""
             style=""position:absolute;
             top:55%;
             left:25%;
             transform: translate(-50%, -50%);
             height:300px;
             width:auto;
             ""/>

            <img src='img/jar_covered_opened.png'
            style=""position:absolute;
            z-index: -1;
            top:50%;
            left:53%;
            height: 600px;
            margin-top:-430px;
            margin-left:-290px""/>

            <img src=""img/faces/2.png""
            style=""position:absolute;
             top:10%;
             left:85%;
             height:200px;
             width:auto;""/>

            <img src=""img/faces/3.png""
            style=""position:absolute;
             top:50%;
             left:85%;
             height:200px;
             width:auto;""/>

             <img src=""img/agent_choices_piechart/65.png""
            style=""position:absolute;
             top:27%;
             left:70%;
             height:30px;
             width:auto;""/>

             <img src=""img/agent_choices_piechart/85.png""
            style=""position:absolute;
             top:67%;
             left:70%;
             height:30px;
             width:auto;""/>
            </div>

            <div style=""width:200px;
            margin-bottom: 40px;
            margin-top: 50px;"">
            <p style=""top:40%;right:0%; position:relative;"">Choose your confidence for the jar which the beads are drawn from:</p>
            <div style=""width:10px; float: left;"">
            <p><img src=""img/red_jar_piechart.png"" style=""width:30px; top:43px""/></p>
            </div>
            <div style=""width: 25px; float: right;"">
            <p><img src=""img/green_jar_piechart.png"" style=""width:30px; top:43px""/></p>
            </div>
            </div>

            ","true","img/agent_choices_piechart/65.png","img/agent_choices_piechart/85.png","img/bead_samples/0.4.png","html-slider-response","4785","1034524","0.0-4785.0","R_3nuTaeckaP246Wk"
"10205","68","

            <div style=""z-index: -1"">

            <img src=""img/bead_samples/0.3.png""
             style=""position:absolute;
             top:55%;
             left:25%;
             transform: translate(-50%, -50%);
             height:300px;
             width:auto;
             ""/>

            <img src='img/jar_covered_opened.png'
            style=""position:absolute;
            z-index: -1;
            top:50%;
            left:53%;
            height: 600px;
            margin-top:-430px;
            margin-left:-290px""/>

            <img src=""img/faces/3.png""
            style=""position:absolute;
             top:10%;
             left:85%;
             height:200px;
             width:auto;""/>

            <img src=""img/faces/4.png""
            style=""position:absolute;
             top:50%;
             left:85%;
             height:200px;
             width:auto;""/>

             <img src=""img/agent_choices_piechart/75.png""
            style=""position:absolute;
             top:27%;
             left:70%;
             height:30px;
             width:auto;""/>

             <img src=""img/agent_choices_piechart/60.png""
            style=""position:absolute;
             top:67%;
             left:70%;
             height:30px;
             width:auto;""/>
            </div>

            <div style=""width:200px;
            margin-bottom: 40px;
            margin-top: 50px;"">
            <p style=""top:40%;right:0%; position:relative;"">Choose your confidence for the jar which the beads are drawn from:</p>
            <div style=""width:10px; float: left;"">
            <p><img src=""img/red_jar_piechart.png"" style=""width:30px; top:43px""/></p>
            </div>
            <div style=""width: 25px; float: right;"">
            <p><img src=""img/green_jar_piechart.png"" style=""width:30px; top:43px""/></p>
            </div>
            </div>

            ","true","img/agent_choices_piechart/75.png","img/agent_choices_piechart/60.png","img/bead_samples/0.3.png","html-slider-response","4848","1054372","0.0-4848.0","R_3nuTaeckaP246Wk"
"9998.699999809265","32","

            <div style=""z-index: -1"">

            <img src=""img/bead_samples/0.7.png""
             style=""position:absolute;
             top:55%;
             left:25%;
             transform: translate(-50%, -50%);
             height:300px;
             width:auto;
             ""/>

            <img src='img/jar_covered_opened.png'
            style=""position:absolute;
            z-index: -1;
            top:50%;
            left:53%;
            height: 600px;
            margin-top:-430px;
            margin-left:-290px""/>

            <img src=""img/faces/4.png""
            style=""position:absolute;
             top:10%;
             left:85%;
             height:200px;
             width:auto;""/>

            <img src=""img/faces/5.png""
            style=""position:absolute;
             top:50%;
             left:85%;
             height:200px;
             width:auto;""/>

             <img src=""img/agent_choices_piechart/20.png""
            style=""position:absolute;
             top:27%;
             left:70%;
             height:30px;
             width:auto;""/>

             <img src=""img/agent_choices_piechart/55.png""
            style=""position:absolute;
             top:67%;
             left:70%;
             height:30px;
             width:auto;""/>
            </div>

            <div style=""width:200px;
            margin-bottom: 40px;
            margin-top: 50px;"">
            <p style=""top:40%;right:0%; position:relative;"">Choose your confidence for the jar which the beads are drawn from:</p>
            <div style=""width:10px; float: left;"">
            <p><img src=""img/red_jar_piechart.png"" style=""width:30px; top:43px""/></p>
            </div>
            <div style=""width: 25px; float: right;"">
            <p><img src=""img/green_jar_piechart.png"" style=""width:30px; top:43px""/></p>
            </div>
            </div>

            ","true","img/agent_choices_piechart/20.png","img/agent_choices_piechart/55.png","img/bead_samples/0.7.png","html-slider-response","4910","1065351","0.0-4910.0","R_3nuTaeckaP246Wk"
"17427.700000047684","50","

            <div style=""z-index: -1"">

            <img src=""img/bead_samples/0.3.png""
             style=""position:absolute;
             top:55%;
             left:25%;
             transform: translate(-50%, -50%);
             height:300px;
             width:auto;
             ""/>

            <img src='img/jar_covered_opened.png'
            style=""position:absolute;
            z-index: -1;
            top:50%;
            left:53%;
            height: 600px;
            margin-top:-430px;
            margin-left:-290px""/>

            <img src=""img/faces/5.png""
            style=""position:absolute;
             top:10%;
             left:85%;
             height:200px;
             width:auto;""/>

            <img src=""img/faces/6.png""
            style=""position:absolute;
             top:50%;
             left:85%;
             height:200px;
             width:auto;""/>

             <img src=""img/agent_choices_piechart/55.png""
            style=""position:absolute;
             top:27%;
             left:70%;
             height:30px;
             width:auto;""/>

             <img src=""img/agent_choices_piechart/25.png""
            style=""position:absolute;
             top:67%;
             left:70%;
             height:30px;
             width:auto;""/>
            </div>

            <div style=""width:200px;
            margin-bottom: 40px;
            margin-top: 50px;"">
            <p style=""top:40%;right:0%; position:relative;"">Choose your confidence for the jar which the beads are drawn from:</p>
            <div style=""width:10px; float: left;"">
            <p><img src=""img/red_jar_piechart.png"" style=""width:30px; top:43px""/></p>
            </div>
            <div style=""width: 25px; float: right;"">
            <p><img src=""img/green_jar_piechart.png"" style=""width:30px; top:43px""/></p>
            </div>
            </div>

            ","true","img/agent_choices_piechart/55.png","img/agent_choices_piechart/25.png","img/bead_samples/0.3.png","html-slider-response","4972","1083801","0.0-4972.0","R_3nuTaeckaP246Wk"
"23215.400000095367","71","

            <div style=""z-index: -1"">

            <img src=""img/bead_samples/0.3.png""
             style=""position:absolute;
             top:55%;
             left:25%;
             transform: translate(-50%, -50%);
             height:300px;
             width:auto;
             ""/>

            <img src='img/jar_covered_opened.png'
            style=""position:absolute;
            z-index: -1;
            top:50%;
            left:53%;
            height: 600px;
            margin-top:-430px;
            margin-left:-290px""/>

            <img src=""img/faces/6.png""
            style=""position:absolute;
             top:10%;
             left:85%;
             height:200px;
             width:auto;""/>

            <img src=""img/faces/7.png""
            style=""position:absolute;
             top:50%;
             left:85%;
             height:200px;
             width:auto;""/>

             <img src=""img/agent_choices_piechart/65.png""
            style=""position:absolute;
             top:27%;
             left:70%;
             height:30px;
             width:auto;""/>

             <img src=""img/agent_choices_piechart/35.png""
            style=""position:absolute;
             top:67%;
             left:70%;
             height:30px;
             width:auto;""/>
            </div>

            <div style=""width:200px;
            margin-bottom: 40px;
            margin-top: 50px;"">
            <p style=""top:40%;right:0%; position:relative;"">Choose your confidence for the jar which the beads are drawn from:</p>
            <div style=""width:10px; float: left;"">
            <p><img src=""img/red_jar_piechart.png"" style=""width:30px; top:43px""/></p>
            </div>
