"trial_type","trial_index","time_elapsed","internal_node_id","subject_id","rt","stimulus","key_press","success","response","participant_response","agent_decision_1","agent_decision_2","beads_shown","button_pressed","Color"
"pavlovia","0","38","0.0-0.0","","","","","","","","","","","",""
"html-keyboard-response","1","1090","0.0-1.0","","1050.1999998092651","Welcome to the experiment. Press any key to begin.","32","","","","","","","",""
"html-keyboard-response","2","3733","0.0-2.0","","2639.399999856949","

        <p>This page contains the instructions for the experiment.</p>

        <p>Please read them carefully.</p>

        <p>There are 2 jars, each of which contains a different number of red and green beads.
         They look something like this:</p>

        <img src=""img/jar_40_60.png"" alt = ""6-4"" style=""width:10%"" float:""left"">
        <img src=""img/jar_60_40.png"" alt=""4-6"" style=""width:10%"" float:""right"">
        
        <p> The ratio of red:green in the left jar is 60 to 40 and this ratio for the right jar is 40 to 60. </p>

        <p>You will be given one of these jars at random. But, you won't know which jar it is you have been given, as it will be
        presented to you covered, so you can't see the contents of the jar. This would look something like this:</p>

        <p><img src=""img/jar_covered.png"" style=""width:20%""</p>

        <p>You will then draw random beads from the jar. You might draw something that looks like this:</p>

        <p><img src =""img/bead_samples/0.3.png""</p>

        <p>Based on these beads, your task is to guess, which jar these beads are drawn from. But you only need to state a confidence, using a confidence bar. The left circle indicates the jar with majority of red beads and the right circle is indication of the jar with majority of green beads. For instance, if you were strongly
        confident that the samples are drawn from the jar with majority of red beads, you might choose to place your guess on the confidence scale like
        so (note that the style of the slider you will see in the experiment might look different to that shown here,
        but that should not make a difference):</p>

        <p><img src=""img/agent_choices_piechart/5.png""></p>

        <p>If you think it could be a 50-50 chance of either red or green, you might choose to give a confidence like
        this:</p>

        <p><img src=""img/agent_choices_piechart/50.png""</p>

        <p>After you have taken a guess, the jars will be randomly shuffled, after which you will repeat
        the task.</p>

        <p>Let's do some practice trials, 3 in total. If you're ready to start, and feel that you understand the
         instructions, go ahead and press the 'space' key.</p>

        <p> &lt; Press 'space' to continue &gt; </p>

        ","32","","","","","","","",""
"fullscreen","3","6839","0.0-3.0","","","","","true","","","","","","",""
"html-keyboard-response","4","7649","0.0-4.0","","null","
            <img src='img/jar_covered.png'
            style=""position:absolute;
            top:50%;
            left:45%;
            height: 300px;
            margin-top:-233px;
            margin-left:-233px;""/>

            <img src='img/jar_covered.png'
            style=""position:absolute;
            top:50%;
            left:65%;
            height: 300px;
            margin-top:-233px;
            margin-left:-233px;""/>

            
            <p style=""position:absolute; top:90%; left:50%; transform: translate(-50%, -50%);"">New jar</p>
            ","null","","","","","","","",""
"html-keyboard-response","5","7658","0.0-5.0","","null","

                <img src=""img/jar_covered.png""
                 style=""position:absolute;
                 top:50%;
                 left:45%;
                 height:300px;
                 margin-top:-233px;
                margin-left:-233px;
                 ""/>

                 <img src=""img/jar_covered.png""
                 style=""position:absolute;
                 top:50%;
                 left:65%;
                 height:300px;
                 margin-top:-233px;
                margin-left:-233px;
                 ""/>
                 ","null","","","","","","","",""
"html-keyboard-response","6","7664","0.0-6.0","","null","

                <img src=""img/jar_covered.png""
                 style=""position:absolute;
                 top:50%;
                 left:46%;
                 height:300px;
                 margin-top:-233px;
                margin-left:-233px;
                 ""/>

                 <img src=""img/jar_covered.png""
                 style=""position:absolute;
                 top:50%;
                 left:64%;
                 height:300px;
                 margin-top:-233px;
                margin-left:-233px;
                 ""/>
                 ","null","","","","","","","",""
"html-keyboard-response","7","7675","0.0-7.0","","null","

                <img src=""img/jar_covered.png""
                 style=""position:absolute;
                 top:50%;
                 left:47%;
                 height:300px;
                 margin-top:-233px;
                margin-left:-233px;
                 ""/>

                 <img src=""img/jar_covered.png""
                 style=""position:absolute;
                 top:50%;
                 left:63%;
                 height:300px;
                 margin-top:-233px;
                margin-left:-233px;
                 ""/>
                 ","null","","","","","","","",""
"html-keyboard-response","8","7685","0.0-8.0","","null","

                <img src=""img/jar_covered.png""
                 style=""position:absolute;
                 top:50%;
                 left:48%;
                 height:300px;
                 margin-top:-233px;
                margin-left:-233px;
                 ""/>

                 <img src=""img/jar_covered.png""
                 style=""position:absolute;
                 top:50%;
                 left:62%;
                 height:300px;
                 margin-top:-233px;
                margin-left:-233px;
                 ""/>
                 ","null","","","","","","","",""
"html-keyboard-response","9","7694","0.0-9.0","","null","

                <img src=""img/jar_covered.png""
                 style=""position:absolute;
                 top:50%;
                 left:49%;
                 height:300px;
                 margin-top:-233px;
                margin-left:-233px;
                 ""/>

                 <img src=""img/jar_covered.png""
                 style=""position:absolute;
                 top:50%;
                 left:61%;
                 height:300px;
                 margin-top:-233px;
                margin-left:-233px;
                 ""/>
                 ","null","","","","","","","",""
"html-keyboard-response","10","7702","0.0-10.0","","null","

                <img src=""img/jar_covered.png""
                 style=""position:absolute;
                 top:50%;
                 left:50%;
                 height:300px;
                 margin-top:-233px;
                margin-left:-233px;
                 ""/>

                 <img src=""img/jar_covered.png""
                 style=""position:absolute;
                 top:50%;
                 left:60%;
                 height:300px;
                 margin-top:-233px;
                margin-left:-233px;
                 ""/>
                 ","null","","","","","","","",""
"html-keyboard-response","11","7710","0.0-11.0","","null","

                <img src=""img/jar_covered.png""
                 style=""position:absolute;
                 top:50%;
                 left:51%;
                 height:300px;
                 margin-top:-233px;
                margin-left:-233px;
                 ""/>

                 <img src=""img/jar_covered.png""
                 style=""position:absolute;
                 top:50%;
                 left:59%;
                 height:300px;
                 margin-top:-233px;
                margin-left:-233px;
                 ""/>
                 ","null","","","","","","","",""
"html-keyboard-response","12","7718","0.0-12.0","","null","

                <img src=""img/jar_covered.png""
                 style=""position:absolute;
                 top:50%;
                 left:52%;
                 height:300px;
                 margin-top:-233px;
                margin-left:-233px;
                 ""/>

                 <img src=""img/jar_covered.png""
                 style=""position:absolute;
                 top:50%;
                 left:58%;
                 height:300px;
                 margin-top:-233px;
                margin-left:-233px;
                 ""/>
                 ","null","","","","","","","",""
"html-keyboard-response","13","7730","0.0-13.0","","null","

                <img src=""img/jar_covered.png""
                 style=""position:absolute;
                 top:50%;
                 left:53%;
                 height:300px;
                 margin-top:-233px;
                margin-left:-233px;
                 ""/>

                 <img src=""img/jar_covered.png""
                 style=""position:absolute;
                 top:50%;
                 left:57%;
                 height:300px;
                 margin-top:-233px;
                margin-left:-233px;
                 ""/>
                 ","null","","","","","","","",""
"html-keyboard-response","14","7746","0.0-14.0","","null","

                <img src=""img/jar_covered.png""
                 style=""position:absolute;
                 top:50%;
                 left:54%;
                 height:300px;
                 margin-top:-233px;
                margin-left:-233px;
                 ""/>

                 <img src=""img/jar_covered.png""
                 style=""position:absolute;
                 top:50%;
                 left:56%;
                 height:300px;
                 margin-top:-233px;
                margin-left:-233px;
                 ""/>
                 ","null","","","","","","","",""
"html-keyboard-response","15","7763","0.0-15.0","","null","

                <img src=""img/jar_covered.png""
                 style=""position:absolute;
                 top:50%;
                 left:55%;
                 height:300px;
                 margin-top:-233px;
                margin-left:-233px;
                 ""/>

                 <img src=""img/jar_covered.png""
                 style=""position:absolute;
                 top:50%;
                 left:55%;
                 height:300px;
                 margin-top:-233px;
                margin-left:-233px;
                 ""/>
                 ","null","","","","","","","",""
"html-keyboard-response","16","7777","0.0-16.0","","null","

                <img src=""img/jar_covered.png""
                 style=""position:absolute;
                 top:50%;
                 left:56%;
                 height:300px;
                 margin-top:-233px;
                margin-left:-233px;
                 ""/>

                 <img src=""img/jar_covered.png""
                 style=""position:absolute;
                 top:50%;
                 left:54%;
                 height:300px;
                 margin-top:-233px;
                margin-left:-233px;
                 ""/>
                 ","null","","","","","","","",""
"html-keyboard-response","17","7785","0.0-17.0","","null","

                <img src=""img/jar_covered.png""
                 style=""position:absolute;
                 top:50%;
                 left:57%;
                 height:300px;
                 margin-top:-233px;
                margin-left:-233px;
                 ""/>

                 <img src=""img/jar_covered.png""
                 style=""position:absolute;
                 top:50%;
                 left:53%;
                 height:300px;
                 margin-top:-233px;
                margin-left:-233px;
                 ""/>
                 ","null","","","","","","","",""
"html-keyboard-response","18","7793","0.0-18.0","","null","

                <img src=""img/jar_covered.png""
                 style=""position:absolute;
                 top:50%;
                 left:58%;
                 height:300px;
                 margin-top:-233px;
                margin-left:-233px;
                 ""/>

                 <img src=""img/jar_covered.png""
                 style=""position:absolute;
                 top:50%;
                 left:52%;
                 height:300px;
                 margin-top:-233px;
                margin-left:-233px;
                 ""/>
                 ","null","","","","","","","",""
"html-keyboard-response","19","7801","0.0-19.0","","null","

                <img src=""img/jar_covered.png""
                 style=""position:absolute;
                 top:50%;
                 left:59%;
                 height:300px;
                 margin-top:-233px;
                margin-left:-233px;
                 ""/>

                 <img src=""img/jar_covered.png""
                 style=""position:absolute;
                 top:50%;
                 left:51%;
                 height:300px;
                 margin-top:-233px;
                margin-left:-233px;
                 ""/>
                 ","null","","","","","","","",""
"html-keyboard-response","20","7813","0.0-20.0","","null","

                <img src=""img/jar_covered.png""
                 style=""position:absolute;
                 top:50%;
                 left:60%;
                 height:300px;
                 margin-top:-233px;
                margin-left:-233px;
                 ""/>

                 <img src=""img/jar_covered.png""
                 style=""position:absolute;
                 top:50%;
                 left:50%;
                 height:300px;
                 margin-top:-233px;
                margin-left:-233px;
                 ""/>
                 ","null","","","","","","","",""
"html-keyboard-response","21","7829","0.0-21.0","","null","

                <img src=""img/jar_covered.png""
                 style=""position:absolute;
                 top:50%;
                 left:61%;
                 height:300px;
                 margin-top:-233px;
                margin-left:-233px;
                 ""/>

                 <img src=""img/jar_covered.png""
                 style=""position:absolute;
                 top:50%;
                 left:49%;
                 height:300px;
                 margin-top:-233px;
                margin-left:-233px;
                 ""/>
                 ","null","","","","","","","",""
"html-keyboard-response","22","7845","0.0-22.0","","null","

                <img src=""img/jar_covered.png""
                 style=""position:absolute;
                 top:50%;
                 left:62%;
                 height:300px;
                 margin-top:-233px;
                margin-left:-233px;
                 ""/>

                 <img src=""img/jar_covered.png""
                 style=""position:absolute;
                 top:50%;
                 left:48%;
                 height:300px;
                 margin-top:-233px;
                margin-left:-233px;
                 ""/>
                 ","null","","","","","","","",""
"html-keyboard-response","23","7862","0.0-23.0","","null","

                <img src=""img/jar_covered.png""
                 style=""position:absolute;
                 top:50%;
                 left:63%;
                 height:300px;
                 margin-top:-233px;
                margin-left:-233px;
                 ""/>

                 <img src=""img/jar_covered.png""
                 style=""position:absolute;
                 top:50%;
                 left:47%;
                 height:300px;
                 margin-top:-233px;
                margin-left:-233px;
                 ""/>
                 ","null","","","","","","","",""
"html-keyboard-response","24","7871","0.0-24.0","","null","

                <img src=""img/jar_covered.png""
                 style=""position:absolute;
                 top:50%;
                 left:64%;
                 height:300px;
                 margin-top:-233px;
                margin-left:-233px;
                 ""/>

                 <img src=""img/jar_covered.png""
                 style=""position:absolute;
                 top:50%;
                 left:46%;
                 height:300px;
                 margin-top:-233px;
                margin-left:-233px;
                 ""/>
                 ","null","","","","","","","",""
"html-keyboard-response","25","7878","0.0-25.0","","null","

                <img src=""img/jar_covered.png""
                 style=""position:absolute;
                 top:50%;
                 left:45%;
                 height:300px;
                 margin-top:-233px;
                margin-left:-233px;
                 ""/>

                 <img src=""img/jar_covered.png""
                 style=""position:absolute;
                 top:50%;
                 left:65%;
                 height:300px;
                 margin-top:-233px;
                margin-left:-233px;
                 ""/>
                 ","null","","","","","","","",""
"html-keyboard-response","26","7890","0.0-26.0","","null","

                <img src=""img/jar_covered.png""
                 style=""position:absolute;
                 top:50%;
                 left:46%;
                 height:300px;
                 margin-top:-233px;
                margin-left:-233px;
                 ""/>

                 <img src=""img/jar_covered.png""
                 style=""position:absolute;
                 top:50%;
                 left:64%;
                 height:300px;
                 margin-top:-233px;
                margin-left:-233px;
                 ""/>
                 ","null","","","","","","","",""
"html-keyboard-response","27","7903","0.0-27.0","","null","

                <img src=""img/jar_covered.png""
                 style=""position:absolute;
                 top:50%;
                 left:47%;
                 height:300px;
                 margin-top:-233px;
                margin-left:-233px;
                 ""/>

                 <img src=""img/jar_covered.png""
                 style=""position:absolute;
                 top:50%;
                 left:63%;
                 height:300px;
                 margin-top:-233px;
                margin-left:-233px;
                 ""/>
                 ","null","","","","","","","",""
"html-keyboard-response","28","7911","0.0-28.0","","null","

                <img src=""img/jar_covered.png""
                 style=""position:absolute;
                 top:50%;
                 left:48%;
                 height:300px;
                 margin-top:-233px;
                margin-left:-233px;
                 ""/>

                 <img src=""img/jar_covered.png""
                 style=""position:absolute;
                 top:50%;
                 left:62%;
                 height:300px;
                 margin-top:-233px;
                margin-left:-233px;
                 ""/>
                 ","null","","","","","","","",""
"html-keyboard-response","29","7919","0.0-29.0","","null","

                <img src=""img/jar_covered.png""
                 style=""position:absolute;
                 top:50%;
                 left:49%;
                 height:300px;
                 margin-top:-233px;
                margin-left:-233px;
                 ""/>

                 <img src=""img/jar_covered.png""
                 style=""position:absolute;
                 top:50%;
                 left:61%;
                 height:300px;
                 margin-top:-233px;
                margin-left:-233px;
                 ""/>
                 ","null","","","","","","","",""
"html-keyboard-response","30","7927","0.0-30.0","","null","

                <img src=""img/jar_covered.png""
                 style=""position:absolute;
                 top:50%;
                 left:50%;
                 height:300px;
                 margin-top:-233px;
                margin-left:-233px;
                 ""/>

                 <img src=""img/jar_covered.png""
                 style=""position:absolute;
                 top:50%;
                 left:60%;
                 height:300px;
                 margin-top:-233px;
                margin-left:-233px;
                 ""/>
                 ","null","","","","","","","",""
"html-keyboard-response","31","7934","0.0-31.0","","null","

                <img src=""img/jar_covered.png""
                 style=""position:absolute;
                 top:50%;
                 left:51%;
                 height:300px;
                 margin-top:-233px;
                margin-left:-233px;
                 ""/>

                 <img src=""img/jar_covered.png""
                 style=""position:absolute;
                 top:50%;
                 left:59%;
                 height:300px;
                 margin-top:-233px;
                margin-left:-233px;
                 ""/>
                 ","null","","","","","","","",""
"html-keyboard-response","32","7946","0.0-32.0","","null","

                <img src=""img/jar_covered.png""
                 style=""position:absolute;
                 top:50%;
                 left:52%;
                 height:300px;
                 margin-top:-233px;
                margin-left:-233px;
                 ""/>

                 <img src=""img/jar_covered.png""
                 style=""position:absolute;
                 top:50%;
                 left:58%;
                 height:300px;
                 margin-top:-233px;
                margin-left:-233px;
                 ""/>
                 ","null","","","","","","","",""
"html-keyboard-response","33","7952","0.0-33.0","","null","

                <img src=""img/jar_covered.png""
                 style=""position:absolute;
                 top:50%;
                 left:53%;
                 height:300px;
                 margin-top:-233px;
                margin-left:-233px;
                 ""/>

                 <img src=""img/jar_covered.png""
                 style=""position:absolute;
                 top:50%;
                 left:57%;
                 height:300px;
                 margin-top:-233px;
                margin-left:-233px;
                 ""/>
                 ","null","","","","","","","",""
"html-keyboard-response","34","7963","0.0-34.0","","null","

                <img src=""img/jar_covered.png""
                 style=""position:absolute;
                 top:50%;
                 left:54%;
                 height:300px;
                 margin-top:-233px;
                margin-left:-233px;
                 ""/>

                 <img src=""img/jar_covered.png""
                 style=""position:absolute;
                 top:50%;
                 left:56%;
                 height:300px;
                 margin-top:-233px;
                margin-left:-233px;
                 ""/>
                 ","null","","","","","","","",""
"html-keyboard-response","35","7978","0.0-35.0","","null","

                <img src=""img/jar_covered.png""
                 style=""position:absolute;
                 top:50%;
                 left:55%;
                 height:300px;
                 margin-top:-233px;
                margin-left:-233px;
                 ""/>

                 <img src=""img/jar_covered.png""
                 style=""position:absolute;
                 top:50%;
                 left:55%;
                 height:300px;
                 margin-top:-233px;
                margin-left:-233px;
                 ""/>
                 ","null","","","","","","","",""
"html-keyboard-response","36","7990","0.0-36.0","","null","

                <img src=""img/jar_covered.png""
                 style=""position:absolute;
                 top:50%;
                 left:56%;
                 height:300px;
                 margin-top:-233px;
                margin-left:-233px;
                 ""/>

                 <img src=""img/jar_covered.png""
                 style=""position:absolute;
                 top:50%;
                 left:54%;
                 height:300px;
                 margin-top:-233px;
                margin-left:-233px;
                 ""/>
                 ","null","","","","","","","",""
"html-keyboard-response","37","7998","0.0-37.0","","null","

                <img src=""img/jar_covered.png""
                 style=""position:absolute;
                 top:50%;
                 left:57%;
                 height:300px;
                 margin-top:-233px;
                margin-left:-233px;
                 ""/>

                 <img src=""img/jar_covered.png""
                 style=""position:absolute;
                 top:50%;
                 left:53%;
                 height:300px;
                 margin-top:-233px;
                margin-left:-233px;
                 ""/>
                 ","null","","","","","","","",""
"html-keyboard-response","38","8006","0.0-38.0","","null","

                <img src=""img/jar_covered.png""
                 style=""position:absolute;
                 top:50%;
                 left:58%;
                 height:300px;
                 margin-top:-233px;
                margin-left:-233px;
                 ""/>

                 <img src=""img/jar_covered.png""
                 style=""position:absolute;
                 top:50%;
                 left:52%;
                 height:300px;
                 margin-top:-233px;
                margin-left:-233px;
                 ""/>
                 ","null","","","","","","","",""
"html-keyboard-response","39","8013","0.0-39.0","","null","

                <img src=""img/jar_covered.png""
                 style=""position:absolute;
                 top:50%;
                 left:59%;
                 height:300px;
                 margin-top:-233px;
                margin-left:-233px;
                 ""/>

                 <img src=""img/jar_covered.png""
                 style=""position:absolute;
                 top:50%;
                 left:51%;
                 height:300px;
                 margin-top:-233px;
                margin-left:-233px;
                 ""/>
                 ","null","","","","","","","",""
"html-keyboard-response","40","8026","0.0-40.0","","null","

                <img src=""img/jar_covered.png""
                 style=""position:absolute;
                 top:50%;
                 left:60%;
                 height:300px;
                 margin-top:-233px;
                margin-left:-233px;
                 ""/>

                 <img src=""img/jar_covered.png""
                 style=""position:absolute;
                 top:50%;
                 left:50%;
                 height:300px;
                 margin-top:-233px;
                margin-left:-233px;
                 ""/>
                 ","null","","","","","","","",""
"html-keyboard-response","41","8036","0.0-41.0","","null","

                <img src=""img/jar_covered.png""
                 style=""position:absolute;
                 top:50%;
                 left:61%;
                 height:300px;
                 margin-top:-233px;
                margin-left:-233px;
                 ""/>

                 <img src=""img/jar_covered.png""
                 style=""position:absolute;
                 top:50%;
                 left:49%;
                 height:300px;
                 margin-top:-233px;
                margin-left:-233px;
                 ""/>
                 ","null","","","","","","","",""
"html-keyboard-response","42","8052","0.0-42.0","","null","

                <img src=""img/jar_covered.png""
                 style=""position:absolute;
                 top:50%;
                 left:62%;
                 height:300px;
                 margin-top:-233px;
                margin-left:-233px;
                 ""/>

                 <img src=""img/jar_covered.png""
                 style=""position:absolute;
                 top:50%;
                 left:48%;
                 height:300px;
                 margin-top:-233px;
                margin-left:-233px;
                 ""/>
                 ","null","","","","","","","",""
"html-keyboard-response","43","8061","0.0-43.0","","null","

                <img src=""img/jar_covered.png""
                 style=""position:absolute;
                 top:50%;
                 left:63%;
                 height:300px;
                 margin-top:-233px;
                margin-left:-233px;
                 ""/>

                 <img src=""img/jar_covered.png""
                 style=""position:absolute;
                 top:50%;
                 left:47%;
                 height:300px;
                 margin-top:-233px;
                margin-left:-233px;
                 ""/>
                 ","null","","","","","","","",""
"html-keyboard-response","44","8067","0.0-44.0","","null","

                <img src=""img/jar_covered.png""
                 style=""position:absolute;
                 top:50%;
                 left:64%;
                 height:300px;
                 margin-top:-233px;
                margin-left:-233px;
                 ""/>

                 <img src=""img/jar_covered.png""
                 style=""position:absolute;
                 top:50%;
                 left:46%;
                 height:300px;
                 margin-top:-233px;
                margin-left:-233px;
                 ""/>
                 ","null","","","","","","","",""
"html-keyboard-response","45","8077","0.0-45.0","","null","

                <img src=""img/jar_covered.png""
                 style=""position:absolute;
                 top:50%;
                 left:45%;
                 height:300px;
                 margin-top:-233px;
                margin-left:-233px;
                 ""/>

                 <img src=""img/jar_covered.png""
                 style=""position:absolute;
                 top:50%;
                 left:65%;
                 height:300px;
                 margin-top:-233px;
                margin-left:-233px;
                 ""/>
                 ","null","","","","","","","",""
"html-keyboard-response","46","8087","0.0-46.0","","null","

                <img src=""img/jar_covered.png""
                 style=""position:absolute;
                 top:50%;
                 left:46%;
                 height:300px;
                 margin-top:-233px;
                margin-left:-233px;
                 ""/>

                 <img src=""img/jar_covered.png""
                 style=""position:absolute;
                 top:50%;
                 left:64%;
                 height:300px;
                 margin-top:-233px;
                margin-left:-233px;
                 ""/>
                 ","null","","","","","","","",""
"html-keyboard-response","47","8098","0.0-47.0","","null","

                <img src=""img/jar_covered.png""
                 style=""position:absolute;
                 top:50%;
                 left:47%;
                 height:300px;
                 margin-top:-233px;
                margin-left:-233px;
                 ""/>

                 <img src=""img/jar_covered.png""
                 style=""position:absolute;
                 top:50%;
                 left:63%;
                 height:300px;
                 margin-top:-233px;
                margin-left:-233px;
                 ""/>
                 ","null","","","","","","","",""
"html-keyboard-response","48","8110","0.0-48.0","","null","

                <img src=""img/jar_covered.png""
                 style=""position:absolute;
                 top:50%;
                 left:48%;
                 height:300px;
                 margin-top:-233px;
                margin-left:-233px;
                 ""/>

                 <img src=""img/jar_covered.png""
                 style=""position:absolute;
                 top:50%;
                 left:62%;
                 height:300px;
                 margin-top:-233px;
                margin-left:-233px;
                 ""/>
                 ","null","","","","","","","",""
"html-keyboard-response","49","8125","0.0-49.0","","null","

                <img src=""img/jar_covered.png""
                 style=""position:absolute;
                 top:50%;
                 left:49%;
                 height:300px;
                 margin-top:-233px;
                margin-left:-233px;
                 ""/>

                 <img src=""img/jar_covered.png""
                 style=""position:absolute;
                 top:50%;
                 left:61%;
                 height:300px;
                 margin-top:-233px;
                margin-left:-233px;
                 ""/>
                 ","null","","","","","","","",""
"html-keyboard-response","50","8131","0.0-50.0","","null","

                <img src=""img/jar_covered.png""
                 style=""position:absolute;
                 top:50%;
                 left:50%;
                 height:300px;
                 margin-top:-233px;
                margin-left:-233px;
                 ""/>

                 <img src=""img/jar_covered.png""
                 style=""position:absolute;
                 top:50%;
                 left:60%;
                 height:300px;
                 margin-top:-233px;
                margin-left:-233px;
                 ""/>
                 ","null","","","","","","","",""
"html-keyboard-response","51","8140","0.0-51.0","","null","

                <img src=""img/jar_covered.png""
                 style=""position:absolute;
                 top:50%;
                 left:51%;
                 height:300px;
                 margin-top:-233px;
                margin-left:-233px;
                 ""/>

                 <img src=""img/jar_covered.png""
                 style=""position:absolute;
                 top:50%;
                 left:59%;
                 height:300px;
                 margin-top:-233px;
                margin-left:-233px;
                 ""/>
                 ","null","","","","","","","",""
"html-keyboard-response","52","8147","0.0-52.0","","null","

                <img src=""img/jar_covered.png""
                 style=""position:absolute;
                 top:50%;
                 left:52%;
                 height:300px;
                 margin-top:-233px;
                margin-left:-233px;
                 ""/>

                 <img src=""img/jar_covered.png""
                 style=""position:absolute;
                 top:50%;
                 left:58%;
                 height:300px;
                 margin-top:-233px;
                margin-left:-233px;
                 ""/>
                 ","null","","","","","","","",""
"html-keyboard-response","53","8156","0.0-53.0","","null","

                <img src=""img/jar_covered.png""
                 style=""position:absolute;
                 top:50%;
                 left:53%;
                 height:300px;
                 margin-top:-233px;
                margin-left:-233px;
                 ""/>

                 <img src=""img/jar_covered.png""
                 style=""position:absolute;
                 top:50%;
                 left:57%;
                 height:300px;
                 margin-top:-233px;
                margin-left:-233px;
                 ""/>
                 ","null","","","","","","","",""
"html-keyboard-response","54","8167","0.0-54.0","","null","

                <img src=""img/jar_covered.png""
                 style=""position:absolute;
                 top:50%;
                 left:54%;
                 height:300px;
                 margin-top:-233px;
                margin-left:-233px;
                 ""/>

                 <img src=""img/jar_covered.png""
                 style=""position:absolute;
                 top:50%;
                 left:56%;
                 height:300px;
                 margin-top:-233px;
                margin-left:-233px;
                 ""/>
                 ","null","","","","","","","",""
"html-keyboard-response","55","8177","0.0-55.0","","null","

                <img src=""img/jar_covered.png""
                 style=""position:absolute;
                 top:50%;
                 left:55%;
                 height:300px;
                 margin-top:-233px;
                margin-left:-233px;
                 ""/>

                 <img src=""img/jar_covered.png""
                 style=""position:absolute;
                 top:50%;
                 left:55%;
                 height:300px;
                 margin-top:-233px;
                margin-left:-233px;
                 ""/>
                 ","null","","","","","","","",""
"html-keyboard-response","56","8187","0.0-56.0","","null","

                <img src=""img/jar_covered.png""
                 style=""position:absolute;
                 top:50%;
                 left:56%;
                 height:300px;
                 margin-top:-233px;
                margin-left:-233px;
                 ""/>

                 <img src=""img/jar_covered.png""
                 style=""position:absolute;
                 top:50%;
                 left:54%;
                 height:300px;
                 margin-top:-233px;
                margin-left:-233px;
                 ""/>
                 ","null","","","","","","","",""
"html-keyboard-response","57","8195","0.0-57.0","","null","

                <img src=""img/jar_covered.png""
                 style=""position:absolute;
                 top:50%;
                 left:57%;
                 height:300px;
                 margin-top:-233px;
                margin-left:-233px;
                 ""/>

                 <img src=""img/jar_covered.png""
                 style=""position:absolute;
                 top:50%;
                 left:53%;
                 height:300px;
                 margin-top:-233px;
                margin-left:-233px;
                 ""/>
                 ","null","","","","","","","",""
"html-keyboard-response","58","8202","0.0-58.0","","null","

                <img src=""img/jar_covered.png""
                 style=""position:absolute;
                 top:50%;
                 left:58%;
                 height:300px;
                 margin-top:-233px;
                margin-left:-233px;
                 ""/>

                 <img src=""img/jar_covered.png""
                 style=""position:absolute;
                 top:50%;
                 left:52%;
                 height:300px;
                 margin-top:-233px;
                margin-left:-233px;
                 ""/>
                 ","null","","","","","","","",""
"html-keyboard-response","59","8210","0.0-59.0","","null","

                <img src=""img/jar_covered.png""
                 style=""position:absolute;
                 top:50%;
                 left:59%;
                 height:300px;
                 margin-top:-233px;
                margin-left:-233px;
                 ""/>

                 <img src=""img/jar_covered.png""
                 style=""position:absolute;
                 top:50%;
                 left:51%;
                 height:300px;
                 margin-top:-233px;
                margin-left:-233px;
                 ""/>
                 ","null","","","","","","","",""
"html-keyboard-response","60","8218","0.0-60.0","","null","

                <img src=""img/jar_covered.png""
                 style=""position:absolute;
                 top:50%;
                 left:60%;
                 height:300px;
                 margin-top:-233px;
                margin-left:-233px;
                 ""/>

                 <img src=""img/jar_covered.png""
                 style=""position:absolute;
                 top:50%;
                 left:50%;
                 height:300px;
                 margin-top:-233px;
                margin-left:-233px;
                 ""/>
                 ","null","","","","","","","",""
"html-keyboard-response","61","8224","0.0-61.0","","null","

                <img src=""img/jar_covered.png""
                 style=""position:absolute;
                 top:50%;
                 left:61%;
                 height:300px;
                 margin-top:-233px;
                margin-left:-233px;
                 ""/>

                 <img src=""img/jar_covered.png""
                 style=""position:absolute;
                 top:50%;
                 left:49%;
                 height:300px;
                 margin-top:-233px;
                margin-left:-233px;
                 ""/>
                 ","null","","","","","","","",""
"html-keyboard-response","62","8233","0.0-62.0","","null","

                <img src=""img/jar_covered.png""
                 style=""position:absolute;
                 top:50%;
                 left:62%;
                 height:300px;
                 margin-top:-233px;
                margin-left:-233px;
                 ""/>

                 <img src=""img/jar_covered.png""
                 style=""position:absolute;
                 top:50%;
                 left:48%;
                 height:300px;
                 margin-top:-233px;
                margin-left:-233px;
                 ""/>
                 ","null","","","","","","","",""
"html-keyboard-response","63","8241","0.0-63.0","","null","

                <img src=""img/jar_covered.png""
                 style=""position:absolute;
                 top:50%;
                 left:63%;
                 height:300px;
                 margin-top:-233px;
                margin-left:-233px;
                 ""/>

                 <img src=""img/jar_covered.png""
                 style=""position:absolute;
                 top:50%;
                 left:47%;
                 height:300px;
                 margin-top:-233px;
                margin-left:-233px;
                 ""/>
                 ","null","","","","","","","",""
"html-keyboard-response","64","8248","0.0-64.0","","null","

                <img src=""img/jar_covered.png""
                 style=""position:absolute;
                 top:50%;
                 left:64%;
                 height:300px;
                 margin-top:-233px;
                margin-left:-233px;
                 ""/>

                 <img src=""img/jar_covered.png""
                 style=""position:absolute;
                 top:50%;
                 left:46%;
                 height:300px;
                 margin-top:-233px;
                margin-left:-233px;
                 ""/>
                 ","null","","","","","","","",""
"html-keyboard-response","65","8258","0.0-65.0","","null","

                <img src=""img/hand_back.png""
                 style=""position:absolute;
                 top:-10%;
                 left:50%;
                 transform: translate(-50%, -50%) rotate(180deg);
                 height:300px;
                 width:auto;
                 ""/>

                <img src='img/jar_covered_opened.png'
                style=""position:absolute;
                top:50%;
                left:53%;
                height: 600px;
                margin-top:-430px;
                margin-left:-290px""/>

                <p style=""position:absolute;
                top:90%;
                left:50%;
                transform: translate(-50%, -50%);"">You are picking beads</p>

                ","null","","","","","","","",""
"html-keyboard-response","66","8264","0.0-66.0","","null","

                <img src=""img/hand_back.png""
                 style=""position:absolute;
                 top:-9%;
                 left:50%;
                 transform: translate(-50%, -50%) rotate(180deg);
                 height:300px;
                 width:auto;
                 ""/>

                <img src='img/jar_covered_opened.png'
                style=""position:absolute;
                top:50%;
                left:53%;
                height: 600px;
                margin-top:-430px;
                margin-left:-290px""/>

                <p style=""position:absolute;
                top:90%;
                left:50%;
                transform: translate(-50%, -50%);"">You are picking beads</p>

                ","null","","","","","","","",""
"html-keyboard-response","67","8272","0.0-67.0","","null","

                <img src=""img/hand_back.png""
                 style=""position:absolute;
                 top:-8%;
                 left:50%;
                 transform: translate(-50%, -50%) rotate(180deg);
                 height:300px;
                 width:auto;
                 ""/>

                <img src='img/jar_covered_opened.png'
                style=""position:absolute;
                top:50%;
                left:53%;
                height: 600px;
                margin-top:-430px;
                margin-left:-290px""/>

                <p style=""position:absolute;
                top:90%;
                left:50%;
                transform: translate(-50%, -50%);"">You are picking beads</p>

                ","null","","","","","","","",""
"html-keyboard-response","68","8280","0.0-68.0","","null","

                <img src=""img/hand_back.png""
                 style=""position:absolute;
                 top:-7%;
                 left:50%;
                 transform: translate(-50%, -50%) rotate(180deg);
                 height:300px;
                 width:auto;
                 ""/>

                <img src='img/jar_covered_opened.png'
                style=""position:absolute;
                top:50%;
                left:53%;
                height: 600px;
                margin-top:-430px;
                margin-left:-290px""/>

                <p style=""position:absolute;
                top:90%;
                left:50%;
                transform: translate(-50%, -50%);"">You are picking beads</p>

                ","null","","","","","","","",""
"html-keyboard-response","69","8286","0.0-69.0","","null","

                <img src=""img/hand_back.png""
                 style=""position:absolute;
                 top:-6%;
                 left:50%;
                 transform: translate(-50%, -50%) rotate(180deg);
                 height:300px;
                 width:auto;
                 ""/>

                <img src='img/jar_covered_opened.png'
                style=""position:absolute;
                top:50%;
                left:53%;
                height: 600px;
                margin-top:-430px;
                margin-left:-290px""/>

                <p style=""position:absolute;
                top:90%;
                left:50%;
                transform: translate(-50%, -50%);"">You are picking beads</p>

                ","null","","","","","","","",""
"html-keyboard-response","70","8296","0.0-70.0","","null","

                <img src=""img/hand_back.png""
                 style=""position:absolute;
                 top:-5%;
                 left:50%;
                 transform: translate(-50%, -50%) rotate(180deg);
                 height:300px;
                 width:auto;
                 ""/>

                <img src='img/jar_covered_opened.png'
                style=""position:absolute;
                top:50%;
                left:53%;
                height: 600px;
                margin-top:-430px;
                margin-left:-290px""/>

                <p style=""position:absolute;
                top:90%;
                left:50%;
                transform: translate(-50%, -50%);"">You are picking beads</p>

                ","null","","","","","","","",""
"html-keyboard-response","71","8303","0.0-71.0","","null","

                <img src=""img/hand_back.png""
                 style=""position:absolute;
                 top:-4%;
                 left:50%;
                 transform: translate(-50%, -50%) rotate(180deg);
                 height:300px;
                 width:auto;
                 ""/>

                <img src='img/jar_covered_opened.png'
                style=""position:absolute;
                top:50%;
                left:53%;
                height: 600px;
                margin-top:-430px;
                margin-left:-290px""/>

                <p style=""position:absolute;
                top:90%;
                left:50%;
                transform: translate(-50%, -50%);"">You are picking beads</p>

                ","null","","","","","","","",""
"html-keyboard-response","72","8311","0.0-72.0","","null","

                <img src=""img/hand_back.png""
                 style=""position:absolute;
                 top:-3%;
                 left:50%;
                 transform: translate(-50%, -50%) rotate(180deg);
                 height:300px;
                 width:auto;
                 ""/>

                <img src='img/jar_covered_opened.png'
                style=""position:absolute;
                top:50%;
                left:53%;
                height: 600px;
                margin-top:-430px;
                margin-left:-290px""/>

                <p style=""position:absolute;
                top:90%;
                left:50%;
                transform: translate(-50%, -50%);"">You are picking beads</p>

                ","null","","","","","","","",""
"html-keyboard-response","73","8319","0.0-73.0","","null","

                <img src=""img/hand_back.png""
                 style=""position:absolute;
                 top:-2%;
                 left:50%;
                 transform: translate(-50%, -50%) rotate(180deg);
                 height:300px;
                 width:auto;
                 ""/>

                <img src='img/jar_covered_opened.png'
                style=""position:absolute;
                top:50%;
                left:53%;
                height: 600px;
                margin-top:-430px;
                margin-left:-290px""/>

                <p style=""position:absolute;
                top:90%;
                left:50%;
                transform: translate(-50%, -50%);"">You are picking beads</p>

                ","null","","","","","","","",""
"html-keyboard-response","74","8327","0.0-74.0","","null","

                <img src=""img/hand_back.png""
                 style=""position:absolute;
                 top:-1%;
                 left:50%;
                 transform: translate(-50%, -50%) rotate(180deg);
                 height:300px;
                 width:auto;
                 ""/>

                <img src='img/jar_covered_opened.png'
                style=""position:absolute;
                top:50%;
                left:53%;
                height: 600px;
                margin-top:-430px;
                margin-left:-290px""/>

                <p style=""position:absolute;
                top:90%;
                left:50%;
                transform: translate(-50%, -50%);"">You are picking beads</p>

                ","null","","","","","","","",""
"html-keyboard-response","75","8334","0.0-75.0","","null","

                <img src=""img/hand_back.png""
                 style=""position:absolute;
                 top:0%;
                 left:50%;
                 transform: translate(-50%, -50%) rotate(180deg);
                 height:300px;
                 width:auto;
                 ""/>

                <img src='img/jar_covered_opened.png'
                style=""position:absolute;
                top:50%;
                left:53%;
                height: 600px;
                margin-top:-430px;
                margin-left:-290px""/>

                <p style=""position:absolute;
                top:90%;
                left:50%;
                transform: translate(-50%, -50%);"">You are picking beads</p>

                ","null","","","","","","","",""
"html-keyboard-response","76","8341","0.0-76.0","","null","

                <img src=""img/hand_back.png""
                 style=""position:absolute;
                 top:1%;
                 left:50%;
                 transform: translate(-50%, -50%) rotate(180deg);
                 height:300px;
                 width:auto;
                 ""/>

                <img src='img/jar_covered_opened.png'
                style=""position:absolute;
                top:50%;
                left:53%;
                height: 600px;
                margin-top:-430px;
                margin-left:-290px""/>

                <p style=""position:absolute;
                top:90%;
                left:50%;
                transform: translate(-50%, -50%);"">You are picking beads</p>

                ","null","","","","","","","",""
"html-keyboard-response","77","8350","0.0-77.0","","null","

                <img src=""img/hand_back.png""
                 style=""position:absolute;
                 top:2%;
                 left:50%;
                 transform: translate(-50%, -50%) rotate(180deg);
                 height:300px;
                 width:auto;
                 ""/>

                <img src='img/jar_covered_opened.png'
                style=""position:absolute;
                top:50%;
                left:53%;
                height: 600px;
                margin-top:-430px;
                margin-left:-290px""/>

                <p style=""position:absolute;
                top:90%;
                left:50%;
                transform: translate(-50%, -50%);"">You are picking beads</p>

                ","null","","","","","","","",""
"html-keyboard-response","78","8365","0.0-78.0","","null","

                <img src=""img/hand_back.png""
                 style=""position:absolute;
                 top:3%;
                 left:50%;
                 transform: translate(-50%, -50%) rotate(180deg);
                 height:300px;
                 width:auto;
                 ""/>

                <img src='img/jar_covered_opened.png'
                style=""position:absolute;
                top:50%;
                left:53%;
                height: 600px;
                margin-top:-430px;
                margin-left:-290px""/>

                <p style=""position:absolute;
                top:90%;
                left:50%;
                transform: translate(-50%, -50%);"">You are picking beads</p>

                ","null","","","","","","","",""
"html-keyboard-response","79","8374","0.0-79.0","","null","

                <img src=""img/hand_back.png""
                 style=""position:absolute;
                 top:4%;
                 left:50%;
                 transform: translate(-50%, -50%) rotate(180deg);
                 height:300px;
                 width:auto;
                 ""/>

                <img src='img/jar_covered_opened.png'
                style=""position:absolute;
                top:50%;
                left:53%;
                height: 600px;
                margin-top:-430px;
                margin-left:-290px""/>

                <p style=""position:absolute;
                top:90%;
                left:50%;
                transform: translate(-50%, -50%);"">You are picking beads</p>

                ","null","","","","","","","",""
"html-keyboard-response","80","8381","0.0-80.0","","null","

                <img src=""img/hand_back.png""
                 style=""position:absolute;
                 top:5%;
                 left:50%;
                 transform: translate(-50%, -50%) rotate(180deg);
                 height:300px;
                 width:auto;
                 ""/>

                <img src='img/jar_covered_opened.png'
                style=""position:absolute;
                top:50%;
                left:53%;
                height: 600px;
                margin-top:-430px;
                margin-left:-290px""/>

                <p style=""position:absolute;
                top:90%;
                left:50%;
                transform: translate(-50%, -50%);"">You are picking beads</p>

                ","null","","","","","","","",""
"html-keyboard-response","81","8391","0.0-81.0","","null","

                <img src=""img/hand_back.png""
                 style=""position:absolute;
                 top:6%;
                 left:50%;
                 transform: translate(-50%, -50%) rotate(180deg);
                 height:300px;
                 width:auto;
                 ""/>

                <img src='img/jar_covered_opened.png'
                style=""position:absolute;
                top:50%;
                left:53%;
                height: 600px;
                margin-top:-430px;
                margin-left:-290px""/>

                <p style=""position:absolute;
                top:90%;
                left:50%;
                transform: translate(-50%, -50%);"">You are picking beads</p>

                ","null","","","","","","","",""
"html-keyboard-response","82","8402","0.0-82.0","","null","

                <img src=""img/hand_back.png""
                 style=""position:absolute;
                 top:7%;
                 left:50%;
                 transform: translate(-50%, -50%) rotate(180deg);
                 height:300px;
                 width:auto;
                 ""/>

                <img src='img/jar_covered_opened.png'
                style=""position:absolute;
                top:50%;
                left:53%;
                height: 600px;
                margin-top:-430px;
                margin-left:-290px""/>

                <p style=""position:absolute;
                top:90%;
                left:50%;
                transform: translate(-50%, -50%);"">You are picking beads</p>

                ","null","","","","","","","",""
"html-keyboard-response","83","8409","0.0-83.0","","null","

                <img src=""img/hand_back.png""
                 style=""position:absolute;
                 top:8%;
                 left:50%;
                 transform: translate(-50%, -50%) rotate(180deg);
                 height:300px;
                 width:auto;
                 ""/>

                <img src='img/jar_covered_opened.png'
                style=""position:absolute;
                top:50%;
                left:53%;
                height: 600px;
                margin-top:-430px;
                margin-left:-290px""/>

                <p style=""position:absolute;
                top:90%;
                left:50%;
                transform: translate(-50%, -50%);"">You are picking beads</p>

                ","null","","","","","","","",""
"html-keyboard-response","84","8417","0.0-84.0","","null","

                <img src=""img/hand_back.png""
                 style=""position:absolute;
                 top:9%;
                 left:50%;
                 transform: translate(-50%, -50%) rotate(180deg);
                 height:300px;
                 width:auto;
                 ""/>

                <img src='img/jar_covered_opened.png'
                style=""position:absolute;
                top:50%;
                left:53%;
                height: 600px;
                margin-top:-430px;
                margin-left:-290px""/>

                <p style=""position:absolute;
                top:90%;
                left:50%;
                transform: translate(-50%, -50%);"">You are picking beads</p>

                ","null","","","","","","","",""
"html-keyboard-response","85","8424","0.0-85.0","","null","

                <img src=""img/hand_back.png""
                 style=""position:absolute;
                 top:10%;
                 left:50%;
                 transform: translate(-50%, -50%) rotate(180deg);
                 height:300px;
                 width:auto;
                 ""/>

                <img src='img/jar_covered_opened.png'
                style=""position:absolute;
                top:50%;
                left:53%;
                height: 600px;
                margin-top:-430px;
                margin-left:-290px""/>

                <p style=""position:absolute;
                top:90%;
                left:50%;
                transform: translate(-50%, -50%);"">You are picking beads</p>

                ","null","","","","","","","",""
"html-keyboard-response","86","8433","0.0-86.0","","null","

                <img src=""img/hand_back.png""
                 style=""position:absolute;
                 top:11%;
                 left:50%;
                 transform: translate(-50%, -50%) rotate(180deg);
                 height:300px;
                 width:auto;
                 ""/>

                <img src='img/jar_covered_opened.png'
                style=""position:absolute;
                top:50%;
                left:53%;
                height: 600px;
                margin-top:-430px;
                margin-left:-290px""/>

                <p style=""position:absolute;
                top:90%;
                left:50%;
                transform: translate(-50%, -50%);"">You are picking beads</p>

                ","null","","","","","","","",""
"html-keyboard-response","87","8444","0.0-87.0","","null","

                <img src=""img/hand_back.png""
                 style=""position:absolute;
                 top:12%;
                 left:50%;
                 transform: translate(-50%, -50%) rotate(180deg);
                 height:300px;
                 width:auto;
                 ""/>

                <img src='img/jar_covered_opened.png'
                style=""position:absolute;
                top:50%;
                left:53%;
                height: 600px;
                margin-top:-430px;
                margin-left:-290px""/>

                <p style=""position:absolute;
                top:90%;
                left:50%;
                transform: translate(-50%, -50%);"">You are picking beads</p>

                ","null","","","","","","","",""
"html-keyboard-response","88","8450","0.0-88.0","","null","

                <img src=""img/hand_back.png""
                 style=""position:absolute;
                 top:13%;
                 left:50%;
                 transform: translate(-50%, -50%) rotate(180deg);
                 height:300px;
                 width:auto;
                 ""/>

                <img src='img/jar_covered_opened.png'
                style=""position:absolute;
                top:50%;
                left:53%;
                height: 600px;
                margin-top:-430px;
                margin-left:-290px""/>

                <p style=""position:absolute;
                top:90%;
                left:50%;
                transform: translate(-50%, -50%);"">You are picking beads</p>

                ","null","","","","","","","",""
"html-keyboard-response","89","8457","0.0-89.0","","null","

                <img src=""img/hand_back.png""
                 style=""position:absolute;
                 top:14%;
                 left:50%;
                 transform: translate(-50%, -50%) rotate(180deg);
                 height:300px;
                 width:auto;
                 ""/>

                <img src='img/jar_covered_opened.png'
                style=""position:absolute;
                top:50%;
                left:53%;
                height: 600px;
                margin-top:-430px;
                margin-left:-290px""/>

                <p style=""position:absolute;
                top:90%;
                left:50%;
                transform: translate(-50%, -50%);"">You are picking beads</p>

                ","null","","","","","","","",""
"html-keyboard-response","90","8466","0.0-90.0","","null","

                <img src=""img/hand_back.png""
                 style=""position:absolute;
                 top:15%;
                 left:50%;
                 transform: translate(-50%, -50%) rotate(180deg);
                 height:300px;
                 width:auto;
                 ""/>

                <img src='img/jar_covered_opened.png'
                style=""position:absolute;
                top:50%;
                left:53%;
                height: 600px;
                margin-top:-430px;
                margin-left:-290px""/>

                <p style=""position:absolute;
                top:90%;
                left:50%;
                transform: translate(-50%, -50%);"">You are picking beads</p>

                ","null","","","","","","","",""
"html-keyboard-response","91","8473","0.0-91.0","","null","

                <img src=""img/hand_back.png""
                 style=""position:absolute;
                 top:16%;
                 left:50%;
                 transform: translate(-50%, -50%) rotate(180deg);
                 height:300px;
                 width:auto;
                 ""/>

                <img src='img/jar_covered_opened.png'
                style=""position:absolute;
                top:50%;
                left:53%;
                height: 600px;
                margin-top:-430px;
                margin-left:-290px""/>

                <p style=""position:absolute;
                top:90%;
                left:50%;
                transform: translate(-50%, -50%);"">You are picking beads</p>

                ","null","","","","","","","",""
"html-keyboard-response","92","8481","0.0-92.0","","null","

                <img src=""img/hand_back.png""
                 style=""position:absolute;
                 top:17%;
                 left:50%;
                 transform: translate(-50%, -50%) rotate(180deg);
                 height:300px;
                 width:auto;
                 ""/>

                <img src='img/jar_covered_opened.png'
                style=""position:absolute;
                top:50%;
                left:53%;
                height: 600px;
                margin-top:-430px;
                margin-left:-290px""/>

                <p style=""position:absolute;
                top:90%;
                left:50%;
                transform: translate(-50%, -50%);"">You are picking beads</p>

                ","null","","","","","","","",""
"html-keyboard-response","93","8491","0.0-93.0","","null","

                <img src=""img/hand_back.png""
                 style=""position:absolute;
                 top:18%;
                 left:50%;
                 transform: translate(-50%, -50%) rotate(180deg);
                 height:300px;
                 width:auto;
                 ""/>

                <img src='img/jar_covered_opened.png'
                style=""position:absolute;
                top:50%;
                left:53%;
                height: 600px;
                margin-top:-430px;
                margin-left:-290px""/>

                <p style=""position:absolute;
                top:90%;
                left:50%;
                transform: translate(-50%, -50%);"">You are picking beads</p>

                ","null","","","","","","","",""
"html-keyboard-response","94","8504","0.0-94.0","","null","

                <img src=""img/hand_back.png""
                 style=""position:absolute;
                 top:19%;
                 left:50%;
                 transform: translate(-50%, -50%) rotate(180deg);
                 height:300px;
                 width:auto;
                 ""/>

                <img src='img/jar_covered_opened.png'
                style=""position:absolute;
                top:50%;
                left:53%;
                height: 600px;
                margin-top:-430px;
                margin-left:-290px""/>

                <p style=""position:absolute;
                top:90%;
                left:50%;
                transform: translate(-50%, -50%);"">You are picking beads</p>

                ","null","","","","","","","",""
"html-keyboard-response","95","8512","0.0-95.0","","null","

                <img src=""img/hand_back.png""
                 style=""position:absolute;
                 top:20%;
                 left:50%;
                 transform: translate(-50%, -50%) rotate(180deg);
                 height:300px;
                 width:auto;
                 ""/>

                <img src='img/jar_covered_opened.png'
                style=""position:absolute;
                top:50%;
                left:53%;
                height: 600px;
                margin-top:-430px;
                margin-left:-290px""/>

                <p style=""position:absolute;
                top:90%;
                left:50%;
                transform: translate(-50%, -50%);"">You are picking beads</p>

                ","null","","","","","","","",""
"html-keyboard-response","96","8520","0.0-96.0","","null","

                <img src=""img/hand_back.png""
                 style=""position:absolute;
                 top:21%;
                 left:50%;
                 transform: translate(-50%, -50%) rotate(180deg);
                 height:300px;
                 width:auto;
                 ""/>

                <img src='img/jar_covered_opened.png'
                style=""position:absolute;
                top:50%;
                left:53%;
                height: 600px;
                margin-top:-430px;
                margin-left:-290px""/>

                <p style=""position:absolute;
                top:90%;
                left:50%;
                transform: translate(-50%, -50%);"">You are picking beads</p>

                ","null","","","","","","","",""
"html-keyboard-response","97","8528","0.0-97.0","","null","

                <img src=""img/hand_back.png""
                 style=""position:absolute;
                 top:22%;
                 left:50%;
                 transform: translate(-50%, -50%) rotate(180deg);
                 height:300px;
                 width:auto;
                 ""/>

                <img src='img/jar_covered_opened.png'
                style=""position:absolute;
                top:50%;
                left:53%;
                height: 600px;
                margin-top:-430px;
                margin-left:-290px""/>

                <p style=""position:absolute;
                top:90%;
                left:50%;
                transform: translate(-50%, -50%);"">You are picking beads</p>

                ","null","","","","","","","",""
"html-keyboard-response","98","8535","0.0-98.0","","null","

                <img src=""img/hand_back.png""
                 style=""position:absolute;
                 top:23%;
                 left:50%;
                 transform: translate(-50%, -50%) rotate(180deg);
                 height:300px;
                 width:auto;
                 ""/>

                <img src='img/jar_covered_opened.png'
                style=""position:absolute;
                top:50%;
                left:53%;
                height: 600px;
                margin-top:-430px;
                margin-left:-290px""/>

                <p style=""position:absolute;
                top:90%;
                left:50%;
                transform: translate(-50%, -50%);"">You are picking beads</p>

                ","null","","","","","","","",""
"html-keyboard-response","99","8541","0.0-99.0","","null","

                <img src=""img/hand_back.png""
                 style=""position:absolute;
                 top:24%;
                 left:50%;
                 transform: translate(-50%, -50%) rotate(180deg);
                 height:300px;
                 width:auto;
                 ""/>

                <img src='img/jar_covered_opened.png'
                style=""position:absolute;
                top:50%;
                left:53%;
                height: 600px;
                margin-top:-430px;
                margin-left:-290px""/>

                <p style=""position:absolute;
                top:90%;
                left:50%;
                transform: translate(-50%, -50%);"">You are picking beads</p>

                ","null","","","","","","","",""
"html-keyboard-response","100","8551","0.0-100.0","","null","

                <img src=""img/hand_back.png""
                 style=""position:absolute;
                 top:25%;
                 left:50%;
                 transform: translate(-50%, -50%) rotate(180deg);
                 height:300px;
                 width:auto;
                 ""/>

                <img src='img/jar_covered_opened.png'
                style=""position:absolute;
                top:50%;
                left:53%;
                height: 600px;
                margin-top:-430px;
                margin-left:-290px""/>

                <p style=""position:absolute;
                top:90%;
                left:50%;
                transform: translate(-50%, -50%);"">You are picking beads</p>

                ","null","","","","","","","",""
"html-keyboard-response","101","8557","0.0-101.0","","null","

                <img src=""img/hand_back.png""
                 style=""position:absolute;
                 top:26%;
                 left:50%;
                 transform: translate(-50%, -50%) rotate(180deg);
                 height:300px;
                 width:auto;
                 ""/>

                <img src='img/jar_covered_opened.png'
                style=""position:absolute;
                top:50%;
                left:53%;
                height: 600px;
                margin-top:-430px;
                margin-left:-290px""/>

                <p style=""position:absolute;
                top:90%;
                left:50%;
                transform: translate(-50%, -50%);"">You are picking beads</p>

                ","null","","","","","","","",""
"html-keyboard-response","102","8565","0.0-102.0","","null","

                <img src=""img/hand_back.png""
                 style=""position:absolute;
                 top:27%;
                 left:50%;
                 transform: translate(-50%, -50%) rotate(180deg);
                 height:300px;
                 width:auto;
                 ""/>

                <img src='img/jar_covered_opened.png'
                style=""position:absolute;
                top:50%;
                left:53%;
                height: 600px;
                margin-top:-430px;
                margin-left:-290px""/>

                <p style=""position:absolute;
                top:90%;
                left:50%;
                transform: translate(-50%, -50%);"">You are picking beads</p>

                ","null","","","","","","","",""
"html-keyboard-response","103","8573","0.0-103.0","","null","

                <img src=""img/hand_back.png""
                 style=""position:absolute;
                 top:28%;
                 left:50%;
                 transform: translate(-50%, -50%) rotate(180deg);
                 height:300px;
                 width:auto;
                 ""/>

                <img src='img/jar_covered_opened.png'
                style=""position:absolute;
                top:50%;
                left:53%;
                height: 600px;
                margin-top:-430px;
                margin-left:-290px""/>

                <p style=""position:absolute;
                top:90%;
                left:50%;
                transform: translate(-50%, -50%);"">You are picking beads</p>

                ","null","","","","","","","",""
"html-keyboard-response","104","8582","0.0-104.0","","null","

                <img src=""img/hand_back.png""
                 style=""position:absolute;
                 top:29%;
                 left:50%;
                 transform: translate(-50%, -50%) rotate(180deg);
                 height:300px;
                 width:auto;
                 ""/>

                <img src='img/jar_covered_opened.png'
                style=""position:absolute;
                top:50%;
                left:53%;
                height: 600px;
                margin-top:-430px;
                margin-left:-290px""/>

                <p style=""position:absolute;
                top:90%;
                left:50%;
                transform: translate(-50%, -50%);"">You are picking beads</p>

                ","null","","","","","","","",""
"html-keyboard-response","105","8589","0.0-105.0","","null","

                <img src=""img/hand_back.png""
                 style=""position:absolute;
                 top:30%;
                 left:50%;
                 transform: translate(-50%, -50%) rotate(180deg);
                 height:300px;
                 width:auto;
                 ""/>

                <img src='img/jar_covered_opened.png'
                style=""position:absolute;
                top:50%;
                left:53%;
                height: 600px;
                margin-top:-430px;
                margin-left:-290px""/>

                <p style=""position:absolute;
                top:90%;
                left:50%;
                transform: translate(-50%, -50%);"">You are picking beads</p>

                ","null","","","","","","","",""
"html-keyboard-response","106","8598","0.0-106.0","","null","

                <img src=""img/hand_back.png""
                 style=""position:absolute;
                 top:31%;
                 left:50%;
                 transform: translate(-50%, -50%) rotate(180deg);
                 height:300px;
                 width:auto;
                 ""/>

                <img src='img/jar_covered_opened.png'
                style=""position:absolute;
                top:50%;
                left:53%;
                height: 600px;
                margin-top:-430px;
                margin-left:-290px""/>

                <p style=""position:absolute;
                top:90%;
                left:50%;
                transform: translate(-50%, -50%);"">You are picking beads</p>

                ","null","","","","","","","",""
"html-keyboard-response","107","8605","0.0-107.0","","null","

                <img src=""img/hand_back.png""
                 style=""position:absolute;
                 top:32%;
                 left:50%;
                 transform: translate(-50%, -50%) rotate(180deg);
                 height:300px;
                 width:auto;
                 ""/>

                <img src='img/jar_covered_opened.png'
                style=""position:absolute;
                top:50%;
                left:53%;
                height: 600px;
                margin-top:-430px;
                margin-left:-290px""/>

                <p style=""position:absolute;
                top:90%;
                left:50%;
                transform: translate(-50%, -50%);"">You are picking beads</p>

                ","null","","","","","","","",""
"html-keyboard-response","108","8613","0.0-108.0","","null","

                <img src=""img/hand_back.png""
                 style=""position:absolute;
                 top:33%;
                 left:50%;
                 transform: translate(-50%, -50%) rotate(180deg);
                 height:300px;
                 width:auto;
                 ""/>

                <img src='img/jar_covered_opened.png'
                style=""position:absolute;
                top:50%;
                left:53%;
                height: 600px;
                margin-top:-430px;
                margin-left:-290px""/>

                <p style=""position:absolute;
                top:90%;
                left:50%;
                transform: translate(-50%, -50%);"">You are picking beads</p>

                ","null","","","","","","","",""
"html-keyboard-response","109","8620","0.0-109.0","","null","

                <img src=""img/hand_back.png""
                 style=""position:absolute;
                 top:34%;
                 left:50%;
                 transform: translate(-50%, -50%) rotate(180deg);
                 height:300px;
                 width:auto;
                 ""/>

                <img src='img/jar_covered_opened.png'
                style=""position:absolute;
                top:50%;
                left:53%;
                height: 600px;
                margin-top:-430px;
                margin-left:-290px""/>

                <p style=""position:absolute;
                top:90%;
                left:50%;
                transform: translate(-50%, -50%);"">You are picking beads</p>

                ","null","","","","","","","",""
"html-keyboard-response","110","8629","0.0-110.0","","null","

                <img src=""img/hand_back.png""
                 style=""position:absolute;
                 top:35%;
                 left:50%;
                 transform: translate(-50%, -50%) rotate(180deg);
                 height:300px;
                 width:auto;
                 ""/>

                <img src='img/jar_covered_opened.png'
                style=""position:absolute;
                top:50%;
                left:53%;
                height: 600px;
                margin-top:-430px;
                margin-left:-290px""/>

                <p style=""position:absolute;
                top:90%;
                left:50%;
                transform: translate(-50%, -50%);"">You are picking beads</p>

                ","null","","","","","","","",""
"html-keyboard-response","111","8636","0.0-111.0","","null","

                <img src=""img/hand_back.png""
                 style=""position:absolute;
                 top:36%;
                 left:50%;
                 transform: translate(-50%, -50%) rotate(180deg);
                 height:300px;
                 width:auto;
                 ""/>

                <img src='img/jar_covered_opened.png'
                style=""position:absolute;
                top:50%;
                left:53%;
                height: 600px;
                margin-top:-430px;
                margin-left:-290px""/>

                <p style=""position:absolute;
                top:90%;
                left:50%;
                transform: translate(-50%, -50%);"">You are picking beads</p>

                ","null","","","","","","","",""
"html-keyboard-response","112","8643","0.0-112.0","","null","

                <img src=""img/hand_back.png""
                 style=""position:absolute;
                 top:37%;
                 left:50%;
                 transform: translate(-50%, -50%) rotate(180deg);
                 height:300px;
                 width:auto;
                 ""/>

                <img src='img/jar_covered_opened.png'
                style=""position:absolute;
                top:50%;
                left:53%;
                height: 600px;
                margin-top:-430px;
                margin-left:-290px""/>

                <p style=""position:absolute;
                top:90%;
                left:50%;
                transform: translate(-50%, -50%);"">You are picking beads</p>

                ","null","","","","","","","",""
"html-keyboard-response","113","8652","0.0-113.0","","null","

                <img src=""img/hand_back.png""
                 style=""position:absolute;
                 top:38%;
                 left:50%;
                 transform: translate(-50%, -50%) rotate(180deg);
                 height:300px;
                 width:auto;
                 ""/>

                <img src='img/jar_covered_opened.png'
                style=""position:absolute;
                top:50%;
                left:53%;
                height: 600px;
                margin-top:-430px;
                margin-left:-290px""/>

                <p style=""position:absolute;
                top:90%;
                left:50%;
                transform: translate(-50%, -50%);"">You are picking beads</p>

                ","null","","","","","","","",""
"html-keyboard-response","114","8659","0.0-114.0","","null","

                <img src=""img/hand_back.png""
                 style=""position:absolute;
                 top:39%;
                 left:50%;
                 transform: translate(-50%, -50%) rotate(180deg);
                 height:300px;
                 width:auto;
                 ""/>

                <img src='img/jar_covered_opened.png'
                style=""position:absolute;
                top:50%;
                left:53%;
                height: 600px;
                margin-top:-430px;
                margin-left:-290px""/>

                <p style=""position:absolute;
                top:90%;
                left:50%;
                transform: translate(-50%, -50%);"">You are picking beads</p>

                ","null","","","","","","","",""
"html-keyboard-response","115","8668","0.0-115.0","","null","

                <img src=""img/hand_fist_edited.png""
                 style=""position:absolute;
                 top:50%;
                 left:50%;
                 transform: translate(-50%, -50%) rotate(180deg);
                 height:300px;
                 width:auto;
                 ""/>

                <img src='img/jar_covered_opened.png'
                style=""position:absolute;
                top:50%;
                left:53%;
                height: 600px;
                margin-top:-430px;
                margin-left:-290px""/>

                <p style=""position:absolute;
                top:90%;
                left:50%;
                transform: translate(-50%, -50%);"">You are picking beads</p>

                ","null","","","","","","","",""
"html-keyboard-response","116","8675","0.0-116.0","","null","

                <img src=""img/hand_fist_edited.png""
                 style=""position:absolute;
                 top:49%;
                 left:50%;
                 transform: translate(-50%, -50%) rotate(180deg);
                 height:300px;
                 width:auto;
                 ""/>

                <img src='img/jar_covered_opened.png'
                style=""position:absolute;
                top:50%;
                left:53%;
                height: 600px;
                margin-top:-430px;
                margin-left:-290px""/>

                <p style=""position:absolute;
                top:90%;
                left:50%;
                transform: translate(-50%, -50%);"">You are picking beads</p>

                ","null","","","","","","","",""
"html-keyboard-response","117","8688","0.0-117.0","","null","

                <img src=""img/hand_fist_edited.png""
                 style=""position:absolute;
                 top:48%;
                 left:50%;
                 transform: translate(-50%, -50%) rotate(180deg);
                 height:300px;
                 width:auto;
                 ""/>

                <img src='img/jar_covered_opened.png'
                style=""position:absolute;
                top:50%;
                left:53%;
                height: 600px;
                margin-top:-430px;
                margin-left:-290px""/>

                <p style=""position:absolute;
                top:90%;
                left:50%;
                transform: translate(-50%, -50%);"">You are picking beads</p>

                ","null","","","","","","","",""
"html-keyboard-response","118","8696","0.0-118.0","","null","

                <img src=""img/hand_fist_edited.png""
                 style=""position:absolute;
                 top:47%;
                 left:50%;
                 transform: translate(-50%, -50%) rotate(180deg);
                 height:300px;
                 width:auto;
                 ""/>

                <img src='img/jar_covered_opened.png'
                style=""position:absolute;
                top:50%;
                left:53%;
                height: 600px;
                margin-top:-430px;
                margin-left:-290px""/>

                <p style=""position:absolute;
                top:90%;
                left:50%;
                transform: translate(-50%, -50%);"">You are picking beads</p>

                ","null","","","","","","","",""
"html-keyboard-response","119","8706","0.0-119.0","","null","

                <img src=""img/hand_fist_edited.png""
                 style=""position:absolute;
                 top:46%;
                 left:50%;
                 transform: translate(-50%, -50%) rotate(180deg);
                 height:300px;
                 width:auto;
                 ""/>

                <img src='img/jar_covered_opened.png'
                style=""position:absolute;
                top:50%;
                left:53%;
                height: 600px;
                margin-top:-430px;
                margin-left:-290px""/>

                <p style=""position:absolute;
                top:90%;
                left:50%;
                transform: translate(-50%, -50%);"">You are picking beads</p>

                ","null","","","","","","","",""
"html-keyboard-response","120","8715","0.0-120.0","","null","

                <img src=""img/hand_fist_edited.png""
                 style=""position:absolute;
                 top:45%;
                 left:50%;
                 transform: translate(-50%, -50%) rotate(180deg);
                 height:300px;
                 width:auto;
                 ""/>

                <img src='img/jar_covered_opened.png'
                style=""position:absolute;
                top:50%;
                left:53%;
                height: 600px;
                margin-top:-430px;
                margin-left:-290px""/>

                <p style=""position:absolute;
                top:90%;
                left:50%;
                transform: translate(-50%, -50%);"">You are picking beads</p>

                ","null","","","","","","","",""
"html-keyboard-response","121","8724","0.0-121.0","","null","

                <img src=""img/hand_fist_edited.png""
                 style=""position:absolute;
                 top:44%;
                 left:50%;
                 transform: translate(-50%, -50%) rotate(180deg);
                 height:300px;
                 width:auto;
                 ""/>

                <img src='img/jar_covered_opened.png'
                style=""position:absolute;
                top:50%;
                left:53%;
                height: 600px;
                margin-top:-430px;
                margin-left:-290px""/>

                <p style=""position:absolute;
                top:90%;
                left:50%;
                transform: translate(-50%, -50%);"">You are picking beads</p>

                ","null","","","","","","","",""
"html-keyboard-response","122","8732","0.0-122.0","","null","

                <img src=""img/hand_fist_edited.png""
                 style=""position:absolute;
                 top:43%;
                 left:50%;
                 transform: translate(-50%, -50%) rotate(180deg);
                 height:300px;
                 width:auto;
                 ""/>

                <img src='img/jar_covered_opened.png'
                style=""position:absolute;
                top:50%;
                left:53%;
                height: 600px;
                margin-top:-430px;
                margin-left:-290px""/>

                <p style=""position:absolute;
                top:90%;
                left:50%;
                transform: translate(-50%, -50%);"">You are picking beads</p>

                ","null","","","","","","","",""
"html-keyboard-response","123","8741","0.0-123.0","","null","

                <img src=""img/hand_fist_edited.png""
                 style=""position:absolute;
                 top:42%;
                 left:50%;
                 transform: translate(-50%, -50%) rotate(180deg);
                 height:300px;
                 width:auto;
                 ""/>

                <img src='img/jar_covered_opened.png'
                style=""position:absolute;
                top:50%;
                left:53%;
                height: 600px;
                margin-top:-430px;
                margin-left:-290px""/>

                <p style=""position:absolute;
                top:90%;
                left:50%;
                transform: translate(-50%, -50%);"">You are picking beads</p>

                ","null","","","","","","","",""
"html-keyboard-response","124","8755","0.0-124.0","","null","

                <img src=""img/hand_fist_edited.png""
                 style=""position:absolute;
                 top:41%;
                 left:50%;
                 transform: translate(-50%, -50%) rotate(180deg);
                 height:300px;
                 width:auto;
                 ""/>

                <img src='img/jar_covered_opened.png'
                style=""position:absolute;
                top:50%;
                left:53%;
                height: 600px;
                margin-top:-430px;
                margin-left:-290px""/>

                <p style=""position:absolute;
                top:90%;
                left:50%;
                transform: translate(-50%, -50%);"">You are picking beads</p>

                ","null","","","","","","","",""
"html-keyboard-response","125","8763","0.0-125.0","","null","

                <img src=""img/hand_fist_edited.png""
                 style=""position:absolute;
                 top:40%;
                 left:50%;
                 transform: translate(-50%, -50%) rotate(180deg);
                 height:300px;
                 width:auto;
                 ""/>

                <img src='img/jar_covered_opened.png'
                style=""position:absolute;
                top:50%;
                left:53%;
                height: 600px;
                margin-top:-430px;
                margin-left:-290px""/>

                <p style=""position:absolute;
                top:90%;
                left:50%;
                transform: translate(-50%, -50%);"">You are picking beads</p>

                ","null","","","","","","","",""
"html-keyboard-response","126","8772","0.0-126.0","","null","

                <img src=""img/hand_fist_edited.png""
                 style=""position:absolute;
                 top:39%;
                 left:50%;
                 transform: translate(-50%, -50%) rotate(180deg);
                 height:300px;
                 width:auto;
                 ""/>

                <img src='img/jar_covered_opened.png'
                style=""position:absolute;
                top:50%;
                left:53%;
                height: 600px;
                margin-top:-430px;
                margin-left:-290px""/>

                <p style=""position:absolute;
                top:90%;
                left:50%;
                transform: translate(-50%, -50%);"">You are picking beads</p>

                ","null","","","","","","","",""
"html-keyboard-response","127","8785","0.0-127.0","","null","

                <img src=""img/hand_fist_edited.png""
                 style=""position:absolute;
                 top:38%;
                 left:50%;
                 transform: translate(-50%, -50%) rotate(180deg);
                 height:300px;
                 width:auto;
                 ""/>

                <img src='img/jar_covered_opened.png'
                style=""position:absolute;
                top:50%;
                left:53%;
                height: 600px;
                margin-top:-430px;
                margin-left:-290px""/>

                <p style=""position:absolute;
                top:90%;
                left:50%;
                transform: translate(-50%, -50%);"">You are picking beads</p>

                ","null","","","","","","","",""
"html-keyboard-response","128","8798","0.0-128.0","","null","

                <img src=""img/hand_fist_edited.png""
                 style=""position:absolute;
                 top:37%;
                 left:50%;
                 transform: translate(-50%, -50%) rotate(180deg);
                 height:300px;
                 width:auto;
                 ""/>

                <img src='img/jar_covered_opened.png'
                style=""position:absolute;
                top:50%;
                left:53%;
                height: 600px;
                margin-top:-430px;
                margin-left:-290px""/>

                <p style=""position:absolute;
                top:90%;
                left:50%;
                transform: translate(-50%, -50%);"">You are picking beads</p>

                ","null","","","","","","","",""
"html-keyboard-response","129","8809","0.0-129.0","","null","

                <img src=""img/hand_fist_edited.png""
                 style=""position:absolute;
                 top:36%;
                 left:50%;
                 transform: translate(-50%, -50%) rotate(180deg);
                 height:300px;
                 width:auto;
                 ""/>

                <img src='img/jar_covered_opened.png'
                style=""position:absolute;
                top:50%;
                left:53%;
                height: 600px;
                margin-top:-430px;
                margin-left:-290px""/>

                <p style=""position:absolute;
                top:90%;
                left:50%;
                transform: translate(-50%, -50%);"">You are picking beads</p>

                ","null","","","","","","","",""
"html-keyboard-response","130","8824","0.0-130.0","","null","

                <img src=""img/hand_fist_edited.png""
                 style=""position:absolute;
                 top:35%;
                 left:50%;
                 transform: translate(-50%, -50%) rotate(180deg);
                 height:300px;
                 width:auto;
                 ""/>

                <img src='img/jar_covered_opened.png'
                style=""position:absolute;
                top:50%;
                left:53%;
                height: 600px;
                margin-top:-430px;
                margin-left:-290px""/>

                <p style=""position:absolute;
                top:90%;
                left:50%;
                transform: translate(-50%, -50%);"">You are picking beads</p>

                ","null","","","","","","","",""
"html-keyboard-response","131","8832","0.0-131.0","","null","

                <img src=""img/hand_fist_edited.png""
                 style=""position:absolute;
                 top:34%;
                 left:50%;
                 transform: translate(-50%, -50%) rotate(180deg);
                 height:300px;
                 width:auto;
                 ""/>

                <img src='img/jar_covered_opened.png'
                style=""position:absolute;
                top:50%;
                left:53%;
                height: 600px;
                margin-top:-430px;
                margin-left:-290px""/>

                <p style=""position:absolute;
                top:90%;
                left:50%;
                transform: translate(-50%, -50%);"">You are picking beads</p>

                ","null","","","","","","","",""
"html-keyboard-response","132","8843","0.0-132.0","","null","

                <img src=""img/hand_fist_edited.png""
                 style=""position:absolute;
                 top:33%;
                 left:50%;
                 transform: translate(-50%, -50%) rotate(180deg);
                 height:300px;
                 width:auto;
                 ""/>

                <img src='img/jar_covered_opened.png'
                style=""position:absolute;
                top:50%;
                left:53%;
                height: 600px;
                margin-top:-430px;
                margin-left:-290px""/>

                <p style=""position:absolute;
                top:90%;
                left:50%;
                transform: translate(-50%, -50%);"">You are picking beads</p>

                ","null","","","","","","","",""
"html-keyboard-response","133","8856","0.0-133.0","","null","

                <img src=""img/hand_fist_edited.png""
