"rt","response","stimulus","participant_response","agent_decision_1","agent_decision_2","beads_shown","trial_type","trial_index","time_elapsed","internal_node_id","subject_id","button_pressed","color"
"3795","2","

            <div style=""z-index: -1"">

            <img src=""img/bead_samples/0.7.png""
             style=""position:absolute;
             top:55%;
             left:25%;
             transform: translate(-50%, -50%);
             height:300px;
             width:auto;
             ""/>

            <img src='img/jar_covered_opened.png'
            style=""position:absolute;
            z-index: -1;
            top:50%;
            left:53%;
            height: 600px;
            margin-top:-430px;
            margin-left:-290px""/>

            <img src=""img/faces/1.png""
            style=""position:absolute;
             top:10%;
             left:85%;
             height:200px;
             width:auto;""/>

            <img src=""img/faces/2.png""
            style=""position:absolute;
             top:50%;
             left:85%;
             height:200px;
             width:auto;""/>

             <img src=""img/agent_choices_piechart/15.png""
            style=""position:absolute;
             top:27%;
             left:70%;
             height:30px;
             width:auto;""/>

             <img src=""img/agent_choices_piechart/20.png""
            style=""position:absolute;
             top:67%;
             left:70%;
             height:30px;
             width:auto;""/>
            </div>

            <div style=""width:200px;
            margin-bottom: 40px;
            margin-top: 50px;"">
            <p style=""top:40%;right:0%; position:relative;"">Choose your confidence for the jar which the beads are drawn from:</p>
            <div style=""width:10px; float: left;"">
            <p><img src=""img/red_jar_piechart.png"" style=""width:30px; top:43px""/></p>
            </div>
            <div style=""width: 25px; float: right;"">
            <p><img src=""img/green_jar_piechart.png"" style=""width:30px; top:43px""/></p>
            </div>
            </div>

            ","true","img/agent_choices_piechart/15.png","img/agent_choices_piechart/20.png","img/bead_samples/0.7.png","html-slider-response","1288","87935","0.0-1288.0","R_1hRJvs7Y7RvMc3s","",""
"8179","60","

            <div style=""z-index: -1"">

            <img src=""img/bead_samples/0.3.png""
             style=""position:absolute;
             top:55%;
             left:25%;
             transform: translate(-50%, -50%);
             height:300px;
             width:auto;
             ""/>

            <img src='img/jar_covered_opened.png'
            style=""position:absolute;
            z-index: -1;
            top:50%;
            left:53%;
            height: 600px;
            margin-top:-430px;
            margin-left:-290px""/>

            <img src=""img/faces/2.png""
            style=""position:absolute;
             top:10%;
             left:85%;
             height:200px;
             width:auto;""/>

            <img src=""img/faces/3.png""
            style=""position:absolute;
             top:50%;
             left:85%;
             height:200px;
             width:auto;""/>

             <img src=""img/agent_choices_piechart/50.png""
            style=""position:absolute;
             top:27%;
             left:70%;
             height:30px;
             width:auto;""/>

             <img src=""img/agent_choices_piechart/40.png""
            style=""position:absolute;
             top:67%;
             left:70%;
             height:30px;
             width:auto;""/>
            </div>

            <div style=""width:200px;
            margin-bottom: 40px;
            margin-top: 50px;"">
            <p style=""top:40%;right:0%; position:relative;"">Choose your confidence for the jar which the beads are drawn from:</p>
            <div style=""width:10px; float: left;"">
            <p><img src=""img/red_jar_piechart.png"" style=""width:30px; top:43px""/></p>
            </div>
            <div style=""width: 25px; float: right;"">
            <p><img src=""img/green_jar_piechart.png"" style=""width:30px; top:43px""/></p>
            </div>
            </div>

            ","true","img/agent_choices_piechart/50.png","img/agent_choices_piechart/40.png","img/bead_samples/0.3.png","html-slider-response","1795","107012","0.0-1795.0","R_1hRJvs7Y7RvMc3s","",""
"4878","46","

            <div style=""z-index: -1"">

            <img src=""img/bead_samples/0.4.png""
             style=""position:absolute;
             top:55%;
             left:25%;
             transform: translate(-50%, -50%);
             height:300px;
             width:auto;
             ""/>

            <img src='img/jar_covered_opened.png'
            style=""position:absolute;
            z-index: -1;
            top:50%;
            left:53%;
            height: 600px;
            margin-top:-430px;
            margin-left:-290px""/>

            <img src=""img/faces/3.png""
            style=""position:absolute;
             top:10%;
             left:85%;
             height:200px;
             width:auto;""/>

            <img src=""img/faces/4.png""
            style=""position:absolute;
             top:50%;
             left:85%;
             height:200px;
             width:auto;""/>

             <img src=""img/agent_choices_piechart/30.png""
            style=""position:absolute;
             top:27%;
             left:70%;
             height:30px;
             width:auto;""/>

             <img src=""img/agent_choices_piechart/50.png""
            style=""position:absolute;
             top:67%;
             left:70%;
             height:30px;
             width:auto;""/>
            </div>

            <div style=""width:200px;
            margin-bottom: 40px;
            margin-top: 50px;"">
            <p style=""top:40%;right:0%; position:relative;"">Choose your confidence for the jar which the beads are drawn from:</p>
            <div style=""width:10px; float: left;"">
            <p><img src=""img/red_jar_piechart.png"" style=""width:30px; top:43px""/></p>
            </div>
            <div style=""width: 25px; float: right;"">
            <p><img src=""img/green_jar_piechart.png"" style=""width:30px; top:43px""/></p>
            </div>
            </div>

            ","true","img/agent_choices_piechart/30.png","img/agent_choices_piechart/50.png","img/bead_samples/0.4.png","html-slider-response","2302","122781","0.0-2302.0","R_1hRJvs7Y7RvMc3s","",""
"8266","","

            <img src=""img/red_jar_piechart.png"" alt = ""6-4"" style=""left:46%; top:40% ;width:3%; position:absolute"">
            <img src=""img/green_jar_piechart.png"" alt=""4-6"" style=""left:51%; top:40% ;width:3%; position:absolute"">

            ","true","","","","html-button-response","2304","135709","0.0-2304.0","R_1hRJvs7Y7RvMc3s","1","green"
"10501","75","

            <div style=""z-index: -1"">

            <img src=""img/bead_samples/0.1.png""
             style=""position:absolute;
             top:55%;
             left:25%;
             transform: translate(-50%, -50%);
             height:300px;
             width:auto;
             ""/>

            <img src='img/jar_covered_opened.png'
            style=""position:absolute;
            z-index: -1;
            top:50%;
            left:53%;
            height: 600px;
            margin-top:-430px;
            margin-left:-290px""/>

            <img src=""img/faces/1.png""
            style=""position:absolute;
             top:10%;
             left:85%;
             height:200px;
             width:auto;""/>

            <img src=""img/faces/2.png""
            style=""position:absolute;
             top:50%;
             left:85%;
             height:200px;
             width:auto;""/>

             <img src=""img/agent_choices_piechart/55.png""
            style=""position:absolute;
             top:27%;
             left:70%;
             height:30px;
             width:auto;""/>

             <img src=""img/agent_choices_piechart/45.png""
            style=""position:absolute;
             top:67%;
             left:70%;
             height:30px;
             width:auto;""/>
            </div>

            <div style=""width:200px;
            margin-bottom: 40px;
            margin-top: 50px;"">
            <p style=""top:40%;right:0%; position:relative;"">Choose your confidence for the jar which the beads are drawn from:</p>
            <div style=""width:10px; float: left;"">
            <p><img src=""img/red_jar_piechart.png"" style=""width:30px; top:43px""/></p>
            </div>
            <div style=""width: 25px; float: right;"">
            <p><img src=""img/green_jar_piechart.png"" style=""width:30px; top:43px""/></p>
            </div>
            </div>

            ","true","img/agent_choices_piechart/55.png","img/agent_choices_piechart/45.png","img/bead_samples/0.1.png","html-slider-response","2366","147367","0.0-2366.0","R_1hRJvs7Y7RvMc3s","",""
"6694","59","

            <div style=""z-index: -1"">

            <img src=""img/bead_samples/0.6.png""
             style=""position:absolute;
             top:55%;
             left:25%;
             transform: translate(-50%, -50%);
             height:300px;
             width:auto;
             ""/>

            <img src='img/jar_covered_opened.png'
            style=""position:absolute;
            z-index: -1;
            top:50%;
            left:53%;
            height: 600px;
            margin-top:-430px;
            margin-left:-290px""/>

            <img src=""img/faces/2.png""
            style=""position:absolute;
             top:10%;
             left:85%;
             height:200px;
             width:auto;""/>

            <img src=""img/faces/3.png""
            style=""position:absolute;
             top:50%;
             left:85%;
             height:200px;
             width:auto;""/>

             <img src=""img/agent_choices_piechart/95.png""
            style=""position:absolute;
             top:27%;
             left:70%;
             height:30px;
             width:auto;""/>

             <img src=""img/agent_choices_piechart/40.png""
            style=""position:absolute;
             top:67%;
             left:70%;
             height:30px;
             width:auto;""/>
            </div>

            <div style=""width:200px;
            margin-bottom: 40px;
            margin-top: 50px;"">
            <p style=""top:40%;right:0%; position:relative;"">Choose your confidence for the jar which the beads are drawn from:</p>
            <div style=""width:10px; float: left;"">
            <p><img src=""img/red_jar_piechart.png"" style=""width:30px; top:43px""/></p>
            </div>
            <div style=""width: 25px; float: right;"">
            <p><img src=""img/green_jar_piechart.png"" style=""width:30px; top:43px""/></p>
            </div>
            </div>

            ","true","img/agent_choices_piechart/95.png","img/agent_choices_piechart/40.png","img/bead_samples/0.6.png","html-slider-response","2428","155218","0.0-2428.0","R_1hRJvs7Y7RvMc3s","",""
"9704","36","

            <div style=""z-index: -1"">

            <img src=""img/bead_samples/0.7.png""
             style=""position:absolute;
             top:55%;
             left:25%;
             transform: translate(-50%, -50%);
             height:300px;
             width:auto;
             ""/>

            <img src='img/jar_covered_opened.png'
            style=""position:absolute;
            z-index: -1;
            top:50%;
            left:53%;
            height: 600px;
            margin-top:-430px;
            margin-left:-290px""/>

            <img src=""img/faces/3.png""
            style=""position:absolute;
             top:10%;
             left:85%;
             height:200px;
             width:auto;""/>

            <img src=""img/faces/4.png""
            style=""position:absolute;
             top:50%;
             left:85%;
             height:200px;
             width:auto;""/>

             <img src=""img/agent_choices_piechart/85.png""
            style=""position:absolute;
             top:27%;
             left:70%;
             height:30px;
             width:auto;""/>

             <img src=""img/agent_choices_piechart/40.png""
            style=""position:absolute;
             top:67%;
             left:70%;
             height:30px;
             width:auto;""/>
            </div>

            <div style=""width:200px;
            margin-bottom: 40px;
            margin-top: 50px;"">
            <p style=""top:40%;right:0%; position:relative;"">Choose your confidence for the jar which the beads are drawn from:</p>
            <div style=""width:10px; float: left;"">
            <p><img src=""img/red_jar_piechart.png"" style=""width:30px; top:43px""/></p>
            </div>
            <div style=""width: 25px; float: right;"">
            <p><img src=""img/green_jar_piechart.png"" style=""width:30px; top:43px""/></p>
            </div>
            </div>

            ","true","img/agent_choices_piechart/85.png","img/agent_choices_piechart/40.png","img/bead_samples/0.7.png","html-slider-response","2490","166068","0.0-2490.0","R_1hRJvs7Y7RvMc3s","",""
"10917","58","

            <div style=""z-index: -1"">

            <img src=""img/bead_samples/0.6.png""
             style=""position:absolute;
             top:55%;
             left:25%;
             transform: translate(-50%, -50%);
             height:300px;
             width:auto;
             ""/>

            <img src='img/jar_covered_opened.png'
            style=""position:absolute;
            z-index: -1;
            top:50%;
            left:53%;
            height: 600px;
            margin-top:-430px;
            margin-left:-290px""/>

            <img src=""img/faces/4.png""
            style=""position:absolute;
             top:10%;
             left:85%;
             height:200px;
             width:auto;""/>

            <img src=""img/faces/5.png""
            style=""position:absolute;
             top:50%;
             left:85%;
             height:200px;
             width:auto;""/>

             <img src=""img/agent_choices_piechart/85.png""
            style=""position:absolute;
             top:27%;
             left:70%;
             height:30px;
             width:auto;""/>

             <img src=""img/agent_choices_piechart/65.png""
            style=""position:absolute;
             top:67%;
             left:70%;
             height:30px;
             width:auto;""/>
            </div>

            <div style=""width:200px;
            margin-bottom: 40px;
            margin-top: 50px;"">
            <p style=""top:40%;right:0%; position:relative;"">Choose your confidence for the jar which the beads are drawn from:</p>
            <div style=""width:10px; float: left;"">
            <p><img src=""img/red_jar_piechart.png"" style=""width:30px; top:43px""/></p>
            </div>
            <div style=""width: 25px; float: right;"">
            <p><img src=""img/green_jar_piechart.png"" style=""width:30px; top:43px""/></p>
            </div>
            </div>

            ","true","img/agent_choices_piechart/85.png","img/agent_choices_piechart/65.png","img/bead_samples/0.6.png","html-slider-response","2552","178145","0.0-2552.0","R_1hRJvs7Y7RvMc3s","",""
"7636","58","

            <div style=""z-index: -1"">

            <img src=""img/bead_samples/0.3.png""
             style=""position:absolute;
             top:55%;
             left:25%;
             transform: translate(-50%, -50%);
             height:300px;
             width:auto;
             ""/>

            <img src='img/jar_covered_opened.png'
            style=""position:absolute;
            z-index: -1;
            top:50%;
            left:53%;
            height: 600px;
            margin-top:-430px;
            margin-left:-290px""/>

            <img src=""img/faces/5.png""
            style=""position:absolute;
             top:10%;
             left:85%;
             height:200px;
             width:auto;""/>

            <img src=""img/faces/6.png""
            style=""position:absolute;
             top:50%;
             left:85%;
             height:200px;
             width:auto;""/>

             <img src=""img/agent_choices_piechart/45.png""
            style=""position:absolute;
             top:27%;
             left:70%;
             height:30px;
             width:auto;""/>

             <img src=""img/agent_choices_piechart/75.png""
            style=""position:absolute;
             top:67%;
             left:70%;
             height:30px;
             width:auto;""/>
            </div>

            <div style=""width:200px;
            margin-bottom: 40px;
            margin-top: 50px;"">
            <p style=""top:40%;right:0%; position:relative;"">Choose your confidence for the jar which the beads are drawn from:</p>
            <div style=""width:10px; float: left;"">
            <p><img src=""img/red_jar_piechart.png"" style=""width:30px; top:43px""/></p>
            </div>
            <div style=""width: 25px; float: right;"">
            <p><img src=""img/green_jar_piechart.png"" style=""width:30px; top:43px""/></p>
            </div>
            </div>

            ","true","img/agent_choices_piechart/45.png","img/agent_choices_piechart/75.png","img/bead_samples/0.3.png","html-slider-response","2614","186935","0.0-2614.0","R_1hRJvs7Y7RvMc3s","",""
"5654","69","

            <div style=""z-index: -1"">

            <img src=""img/bead_samples/0.4.png""
             style=""position:absolute;
             top:55%;
             left:25%;
             transform: translate(-50%, -50%);
             height:300px;
             width:auto;
             ""/>

            <img src='img/jar_covered_opened.png'
            style=""position:absolute;
            z-index: -1;
            top:50%;
            left:53%;
            height: 600px;
            margin-top:-430px;
            margin-left:-290px""/>

            <img src=""img/faces/6.png""
            style=""position:absolute;
             top:10%;
             left:85%;
             height:200px;
             width:auto;""/>

            <img src=""img/faces/7.png""
            style=""position:absolute;
             top:50%;
             left:85%;
             height:200px;
             width:auto;""/>

             <img src=""img/agent_choices_piechart/85.png""
            style=""position:absolute;
             top:27%;
             left:70%;
             height:30px;
             width:auto;""/>

             <img src=""img/agent_choices_piechart/45.png""
            style=""position:absolute;
             top:67%;
             left:70%;
             height:30px;
             width:auto;""/>
            </div>

            <div style=""width:200px;
            margin-bottom: 40px;
            margin-top: 50px;"">
            <p style=""top:40%;right:0%; position:relative;"">Choose your confidence for the jar which the beads are drawn from:</p>
            <div style=""width:10px; float: left;"">
            <p><img src=""img/red_jar_piechart.png"" style=""width:30px; top:43px""/></p>
            </div>
            <div style=""width: 25px; float: right;"">
            <p><img src=""img/green_jar_piechart.png"" style=""width:30px; top:43px""/></p>
            </div>
            </div>

            ","true","img/agent_choices_piechart/85.png","img/agent_choices_piechart/45.png","img/bead_samples/0.4.png","html-slider-response","2676","193743","0.0-2676.0","R_1hRJvs7Y7RvMc3s","",""
"3683","36","

            <div style=""z-index: -1"">

            <img src=""img/bead_samples/0.7.png""
             style=""position:absolute;
             top:55%;
             left:25%;
             transform: translate(-50%, -50%);
             height:300px;
             width:auto;
             ""/>

            <img src='img/jar_covered_opened.png'
            style=""position:absolute;
            z-index: -1;
            top:50%;
            left:53%;
            height: 600px;
            margin-top:-430px;
            margin-left:-290px""/>

            <img src=""img/faces/7.png""
            style=""position:absolute;
             top:10%;
             left:85%;
             height:200px;
             width:auto;""/>

            <img src=""img/faces/8.png""
            style=""position:absolute;
             top:50%;
             left:85%;
             height:200px;
             width:auto;""/>

             <img src=""img/agent_choices_piechart/40.png""
            style=""position:absolute;
             top:27%;
             left:70%;
             height:30px;
             width:auto;""/>

             <img src=""img/agent_choices_piechart/50.png""
            style=""position:absolute;
             top:67%;
             left:70%;
             height:30px;
             width:auto;""/>
            </div>

            <div style=""width:200px;
            margin-bottom: 40px;
            margin-top: 50px;"">
            <p style=""top:40%;right:0%; position:relative;"">Choose your confidence for the jar which the beads are drawn from:</p>
            <div style=""width:10px; float: left;"">
            <p><img src=""img/red_jar_piechart.png"" style=""width:30px; top:43px""/></p>
            </div>
            <div style=""width: 25px; float: right;"">
            <p><img src=""img/green_jar_piechart.png"" style=""width:30px; top:43px""/></p>
            </div>
            </div>

            ","true","img/agent_choices_piechart/40.png","img/agent_choices_piechart/50.png","img/bead_samples/0.7.png","html-slider-response","2738","198573","0.0-2738.0","R_1hRJvs7Y7RvMc3s","",""
"8899","16","

            <div style=""z-index: -1"">

            <img src=""img/bead_samples/0.9.png""
             style=""position:absolute;
             top:55%;
             left:25%;
             transform: translate(-50%, -50%);
             height:300px;
             width:auto;
             ""/>

            <img src='img/jar_covered_opened.png'
            style=""position:absolute;
            z-index: -1;
            top:50%;
            left:53%;
            height: 600px;
            margin-top:-430px;
            margin-left:-290px""/>

            <img src=""img/faces/8.png""
            style=""position:absolute;
             top:10%;
             left:85%;
             height:200px;
             width:auto;""/>

            <img src=""img/faces/9.png""
            style=""position:absolute;
             top:50%;
             left:85%;
             height:200px;
             width:auto;""/>

             <img src=""img/agent_choices_piechart/35.png""
            style=""position:absolute;
             top:27%;
             left:70%;
             height:30px;
             width:auto;""/>

             <img src=""img/agent_choices_piechart/55.png""
            style=""position:absolute;
             top:67%;
             left:70%;
             height:30px;
             width:auto;""/>
            </div>

            <div style=""width:200px;
            margin-bottom: 40px;
            margin-top: 50px;"">
            <p style=""top:40%;right:0%; position:relative;"">Choose your confidence for the jar which the beads are drawn from:</p>
            <div style=""width:10px; float: left;"">
            <p><img src=""img/red_jar_piechart.png"" style=""width:30px; top:43px""/></p>
            </div>
            <div style=""width: 25px; float: right;"">
            <p><img src=""img/green_jar_piechart.png"" style=""width:30px; top:43px""/></p>
            </div>
            </div>

            ","true","img/agent_choices_piechart/35.png","img/agent_choices_piechart/55.png","img/bead_samples/0.9.png","html-slider-response","2800","208622","0.0-2800.0","R_1hRJvs7Y7RvMc3s","",""
"8442","63","

            <div style=""z-index: -1"">

            <img src=""img/bead_samples/0.4.png""
             style=""position:absolute;
             top:55%;
             left:25%;
             transform: translate(-50%, -50%);
             height:300px;
             width:auto;
             ""/>

            <img src='img/jar_covered_opened.png'
            style=""position:absolute;
            z-index: -1;
            top:50%;
            left:53%;
            height: 600px;
            margin-top:-430px;
            margin-left:-290px""/>

            <img src=""img/faces/9.png""
            style=""position:absolute;
             top:10%;
             left:85%;
             height:200px;
             width:auto;""/>

            <img src=""img/faces/10.png""
            style=""position:absolute;
             top:50%;
             left:85%;
             height:200px;
             width:auto;""/>

             <img src=""img/agent_choices_piechart/25.png""
            style=""position:absolute;
             top:27%;
             left:70%;
             height:30px;
             width:auto;""/>

             <img src=""img/agent_choices_piechart/65.png""
            style=""position:absolute;
             top:67%;
             left:70%;
             height:30px;
             width:auto;""/>
            </div>

            <div style=""width:200px;
            margin-bottom: 40px;
            margin-top: 50px;"">
            <p style=""top:40%;right:0%; position:relative;"">Choose your confidence for the jar which the beads are drawn from:</p>
            <div style=""width:10px; float: left;"">
            <p><img src=""img/red_jar_piechart.png"" style=""width:30px; top:43px""/></p>
            </div>
            <div style=""width: 25px; float: right;"">
            <p><img src=""img/green_jar_piechart.png"" style=""width:30px; top:43px""/></p>
            </div>
            </div>

            ","true","img/agent_choices_piechart/25.png","img/agent_choices_piechart/65.png","img/bead_samples/0.4.png","html-slider-response","2862","218212","0.0-2862.0","R_1hRJvs7Y7RvMc3s","",""
"5538","57","

            <div style=""z-index: -1"">

            <img src=""img/bead_samples/0.6.png""
             style=""position:absolute;
             top:55%;
             left:25%;
             transform: translate(-50%, -50%);
             height:300px;
             width:auto;
             ""/>

            <img src='img/jar_covered_opened.png'
            style=""position:absolute;
            z-index: -1;
            top:50%;
            left:53%;
            height: 600px;
            margin-top:-430px;
            margin-left:-290px""/>

            <img src=""img/faces/10.png""
            style=""position:absolute;
             top:10%;
             left:85%;
             height:200px;
             width:auto;""/>

            <img src=""img/faces/11.png""
            style=""position:absolute;
             top:50%;
             left:85%;
             height:200px;
             width:auto;""/>

             <img src=""img/agent_choices_piechart/80.png""
            style=""position:absolute;
             top:27%;
             left:70%;
             height:30px;
             width:auto;""/>

             <img src=""img/agent_choices_piechart/40.png""
            style=""position:absolute;
             top:67%;
             left:70%;
             height:30px;
             width:auto;""/>
            </div>

            <div style=""width:200px;
            margin-bottom: 40px;
            margin-top: 50px;"">
            <p style=""top:40%;right:0%; position:relative;"">Choose your confidence for the jar which the beads are drawn from:</p>
            <div style=""width:10px; float: left;"">
            <p><img src=""img/red_jar_piechart.png"" style=""width:30px; top:43px""/></p>
            </div>
            <div style=""width: 25px; float: right;"">
            <p><img src=""img/green_jar_piechart.png"" style=""width:30px; top:43px""/></p>
            </div>
            </div>

            ","true","img/agent_choices_piechart/80.png","img/agent_choices_piechart/40.png","img/bead_samples/0.6.png","html-slider-response","2924","224905","0.0-2924.0","R_1hRJvs7Y7RvMc3s","",""
"440","50","

            <div style=""z-index: -1"">

            <img src=""img/bead_samples/0.1.png""
             style=""position:absolute;
             top:55%;
             left:25%;
             transform: translate(-50%, -50%);
             height:300px;
             width:auto;
             ""/>

            <img src='img/jar_covered_opened.png'
            style=""position:absolute;
            z-index: -1;
            top:50%;
            left:53%;
            height: 600px;
            margin-top:-430px;
            margin-left:-290px""/>

            <img src=""img/faces/11.png""
            style=""position:absolute;
             top:10%;
             left:85%;
             height:200px;
             width:auto;""/>

            <img src=""img/faces/12.png""
            style=""position:absolute;
             top:50%;
             left:85%;
             height:200px;
             width:auto;""/>

             <img src=""img/agent_choices_piechart/70.png""
            style=""position:absolute;
             top:27%;
             left:70%;
             height:30px;
             width:auto;""/>

             <img src=""img/agent_choices_piechart/40.png""
            style=""position:absolute;
             top:67%;
             left:70%;
             height:30px;
             width:auto;""/>
            </div>

            <div style=""width:200px;
            margin-bottom: 40px;
            margin-top: 50px;"">
            <p style=""top:40%;right:0%; position:relative;"">Choose your confidence for the jar which the beads are drawn from:</p>
            <div style=""width:10px; float: left;"">
            <p><img src=""img/red_jar_piechart.png"" style=""width:30px; top:43px""/></p>
            </div>
            <div style=""width: 25px; float: right;"">
            <p><img src=""img/green_jar_piechart.png"" style=""width:30px; top:43px""/></p>
            </div>
            </div>

            ","true","img/agent_choices_piechart/70.png","img/agent_choices_piechart/40.png","img/bead_samples/0.1.png","html-slider-response","2986","226506","0.0-2986.0","R_1hRJvs7Y7RvMc3s","",""
"406","50","

            <div style=""z-index: -1"">

            <img src=""img/bead_samples/0.8.png""
             style=""position:absolute;
             top:55%;
             left:25%;
             transform: translate(-50%, -50%);
             height:300px;
             width:auto;
             ""/>

            <img src='img/jar_covered_opened.png'
            style=""position:absolute;
            z-index: -1;
            top:50%;
            left:53%;
            height: 600px;
            margin-top:-430px;
            margin-left:-290px""/>

            <img src=""img/faces/12.png""
            style=""position:absolute;
             top:10%;
             left:85%;
             height:200px;
             width:auto;""/>

            <img src=""img/faces/13.png""
            style=""position:absolute;
             top:50%;
             left:85%;
             height:200px;
             width:auto;""/>

             <img src=""img/agent_choices_piechart/85.png""
            style=""position:absolute;
             top:27%;
             left:70%;
             height:30px;
             width:auto;""/>

             <img src=""img/agent_choices_piechart/30.png""
            style=""position:absolute;
             top:67%;
             left:70%;
             height:30px;
             width:auto;""/>
            </div>

            <div style=""width:200px;
            margin-bottom: 40px;
            margin-top: 50px;"">
            <p style=""top:40%;right:0%; position:relative;"">Choose your confidence for the jar which the beads are drawn from:</p>
            <div style=""width:10px; float: left;"">
            <p><img src=""img/red_jar_piechart.png"" style=""width:30px; top:43px""/></p>
            </div>
            <div style=""width: 25px; float: right;"">
            <p><img src=""img/green_jar_piechart.png"" style=""width:30px; top:43px""/></p>
            </div>
            </div>

            ","true","img/agent_choices_piechart/85.png","img/agent_choices_piechart/30.png","img/bead_samples/0.8.png","html-slider-response","3048","228056","0.0-3048.0","R_1hRJvs7Y7RvMc3s","",""
"384","50","

            <div style=""z-index: -1"">

            <img src=""img/bead_samples/0.3.png""
             style=""position:absolute;
             top:55%;
             left:25%;
             transform: translate(-50%, -50%);
             height:300px;
             width:auto;
             ""/>

            <img src='img/jar_covered_opened.png'
            style=""position:absolute;
            z-index: -1;
            top:50%;
            left:53%;
            height: 600px;
            margin-top:-430px;
            margin-left:-290px""/>

            <img src=""img/faces/13.png""
            style=""position:absolute;
             top:10%;
             left:85%;
             height:200px;
             width:auto;""/>

            <img src=""img/faces/14.png""
            style=""position:absolute;
             top:50%;
             left:85%;
             height:200px;
             width:auto;""/>

             <img src=""img/agent_choices_piechart/30.png""
            style=""position:absolute;
             top:27%;
             left:70%;
             height:30px;
             width:auto;""/>

             <img src=""img/agent_choices_piechart/35.png""
            style=""position:absolute;
             top:67%;
             left:70%;
             height:30px;
             width:auto;""/>
            </div>

            <div style=""width:200px;
            margin-bottom: 40px;
            margin-top: 50px;"">
            <p style=""top:40%;right:0%; position:relative;"">Choose your confidence for the jar which the beads are drawn from:</p>
            <div style=""width:10px; float: left;"">
            <p><img src=""img/red_jar_piechart.png"" style=""width:30px; top:43px""/></p>
            </div>
            <div style=""width: 25px; float: right;"">
            <p><img src=""img/green_jar_piechart.png"" style=""width:30px; top:43px""/></p>
            </div>
            </div>

            ","true","img/agent_choices_piechart/30.png","img/agent_choices_piechart/35.png","img/bead_samples/0.3.png","html-slider-response","3110","229595","0.0-3110.0","R_1hRJvs7Y7RvMc3s","",""
"456","50","

            <div style=""z-index: -1"">

            <img src=""img/bead_samples/0.3.png""
             style=""position:absolute;
             top:55%;
             left:25%;
             transform: translate(-50%, -50%);
             height:300px;
             width:auto;
             ""/>

            <img src='img/jar_covered_opened.png'
            style=""position:absolute;
            z-index: -1;
            top:50%;
            left:53%;
            height: 600px;
            margin-top:-430px;
            margin-left:-290px""/>

            <img src=""img/faces/14.png""
            style=""position:absolute;
             top:10%;
             left:85%;
             height:200px;
             width:auto;""/>

            <img src=""img/faces/15.png""
            style=""position:absolute;
             top:50%;
             left:85%;
             height:200px;
             width:auto;""/>

             <img src=""img/agent_choices_piechart/10.png""
            style=""position:absolute;
             top:27%;
             left:70%;
             height:30px;
             width:auto;""/>

             <img src=""img/agent_choices_piechart/70.png""
            style=""position:absolute;
             top:67%;
             left:70%;
             height:30px;
             width:auto;""/>
            </div>

            <div style=""width:200px;
            margin-bottom: 40px;
            margin-top: 50px;"">
            <p style=""top:40%;right:0%; position:relative;"">Choose your confidence for the jar which the beads are drawn from:</p>
            <div style=""width:10px; float: left;"">
            <p><img src=""img/red_jar_piechart.png"" style=""width:30px; top:43px""/></p>
            </div>
            <div style=""width: 25px; float: right;"">
            <p><img src=""img/green_jar_piechart.png"" style=""width:30px; top:43px""/></p>
            </div>
            </div>

            ","true","img/agent_choices_piechart/10.png","img/agent_choices_piechart/70.png","img/bead_samples/0.3.png","html-slider-response","3172","231196","0.0-3172.0","R_1hRJvs7Y7RvMc3s","",""
"630","50","

            <div style=""z-index: -1"">

            <img src=""img/bead_samples/0.7.png""
             style=""position:absolute;
             top:55%;
             left:25%;
             transform: translate(-50%, -50%);
             height:300px;
             width:auto;
             ""/>

            <img src='img/jar_covered_opened.png'
            style=""position:absolute;
            z-index: -1;
            top:50%;
            left:53%;
            height: 600px;
            margin-top:-430px;
            margin-left:-290px""/>

            <img src=""img/faces/15.png""
            style=""position:absolute;
             top:10%;
             left:85%;
             height:200px;
             width:auto;""/>

            <img src=""img/faces/16.png""
            style=""position:absolute;
             top:50%;
             left:85%;
             height:200px;
             width:auto;""/>

             <img src=""img/agent_choices_piechart/55.png""
            style=""position:absolute;
             top:27%;
             left:70%;
             height:30px;
             width:auto;""/>

             <img src=""img/agent_choices_piechart/65.png""
            style=""position:absolute;
             top:67%;
             left:70%;
             height:30px;
             width:auto;""/>
            </div>

            <div style=""width:200px;
            margin-bottom: 40px;
            margin-top: 50px;"">
            <p style=""top:40%;right:0%; position:relative;"">Choose your confidence for the jar which the beads are drawn from:</p>
            <div style=""width:10px; float: left;"">
            <p><img src=""img/red_jar_piechart.png"" style=""width:30px; top:43px""/></p>
            </div>
            <div style=""width: 25px; float: right;"">
            <p><img src=""img/green_jar_piechart.png"" style=""width:30px; top:43px""/></p>
            </div>
            </div>

            ","true","img/agent_choices_piechart/55.png","img/agent_choices_piechart/65.png","img/bead_samples/0.7.png","html-slider-response","3234","232980","0.0-3234.0","R_1hRJvs7Y7RvMc3s","",""
"897","50","

            <div style=""z-index: -1"">

            <img src=""img/bead_samples/0.8.png""
             style=""position:absolute;
             top:55%;
             left:25%;
             transform: translate(-50%, -50%);
             height:300px;
             width:auto;
             ""/>

            <img src='img/jar_covered_opened.png'
            style=""position:absolute;
            z-index: -1;
            top:50%;
            left:53%;
            height: 600px;
            margin-top:-430px;
            margin-left:-290px""/>

            <img src=""img/faces/16.png""
            style=""position:absolute;
             top:10%;
             left:85%;
             height:200px;
             width:auto;""/>

            <img src=""img/faces/17.png""
            style=""position:absolute;
             top:50%;
             left:85%;
             height:200px;
             width:auto;""/>

             <img src=""img/agent_choices_piechart/55.png""
            style=""position:absolute;
             top:27%;
             left:70%;
             height:30px;
             width:auto;""/>

             <img src=""img/agent_choices_piechart/60.png""
            style=""position:absolute;
             top:67%;
             left:70%;
             height:30px;
             width:auto;""/>
            </div>

            <div style=""width:200px;
            margin-bottom: 40px;
            margin-top: 50px;"">
            <p style=""top:40%;right:0%; position:relative;"">Choose your confidence for the jar which the beads are drawn from:</p>
            <div style=""width:10px; float: left;"">
            <p><img src=""img/red_jar_piechart.png"" style=""width:30px; top:43px""/></p>
            </div>
            <div style=""width: 25px; float: right;"">
            <p><img src=""img/green_jar_piechart.png"" style=""width:30px; top:43px""/></p>
            </div>
            </div>

            ","true","img/agent_choices_piechart/55.png","img/agent_choices_piechart/60.png","img/bead_samples/0.8.png","html-slider-response","3296","235026","0.0-3296.0","R_1hRJvs7Y7RvMc3s","",""
"325","50","

            <div style=""z-index: -1"">

            <img src=""img/bead_samples/0.4.png""
             style=""position:absolute;
             top:55%;
             left:25%;
             transform: translate(-50%, -50%);
             height:300px;
             width:auto;
             ""/>

            <img src='img/jar_covered_opened.png'
            style=""position:absolute;
            z-index: -1;
            top:50%;
            left:53%;
            height: 600px;
            margin-top:-430px;
            margin-left:-290px""/>

            <img src=""img/faces/17.png""
            style=""position:absolute;
             top:10%;
             left:85%;
             height:200px;
             width:auto;""/>

            <img src=""img/faces/18.png""
            style=""position:absolute;
             top:50%;
             left:85%;
             height:200px;
             width:auto;""/>

             <img src=""img/agent_choices_piechart/5.png""
            style=""position:absolute;
             top:27%;
             left:70%;
             height:30px;
             width:auto;""/>

             <img src=""img/agent_choices_piechart/85.png""
            style=""position:absolute;
             top:67%;
             left:70%;
             height:30px;
             width:auto;""/>
            </div>

            <div style=""width:200px;
            margin-bottom: 40px;
            margin-top: 50px;"">
            <p style=""top:40%;right:0%; position:relative;"">Choose your confidence for the jar which the beads are drawn from:</p>
            <div style=""width:10px; float: left;"">
            <p><img src=""img/red_jar_piechart.png"" style=""width:30px; top:43px""/></p>
            </div>
            <div style=""width: 25px; float: right;"">
            <p><img src=""img/green_jar_piechart.png"" style=""width:30px; top:43px""/></p>
            </div>
            </div>

            ","true","img/agent_choices_piechart/5.png","img/agent_choices_piechart/85.png","img/bead_samples/0.4.png","html-slider-response","3358","236507","0.0-3358.0","R_1hRJvs7Y7RvMc3s","",""
"361","50","

            <div style=""z-index: -1"">

            <img src=""img/bead_samples/0.7.png""
             style=""position:absolute;
             top:55%;
             left:25%;
             transform: translate(-50%, -50%);
             height:300px;
             width:auto;
             ""/>

            <img src='img/jar_covered_opened.png'
            style=""position:absolute;
            z-index: -1;
            top:50%;
            left:53%;
            height: 600px;
            margin-top:-430px;
            margin-left:-290px""/>

            <img src=""img/faces/18.png""
            style=""position:absolute;
             top:10%;
             left:85%;
             height:200px;
             width:auto;""/>

            <img src=""img/faces/19.png""
            style=""position:absolute;
             top:50%;
             left:85%;
             height:200px;
             width:auto;""/>

             <img src=""img/agent_choices_piechart/85.png""
            style=""position:absolute;
             top:27%;
             left:70%;
             height:30px;
             width:auto;""/>

             <img src=""img/agent_choices_piechart/40.png""
            style=""position:absolute;
             top:67%;
             left:70%;
             height:30px;
             width:auto;""/>
            </div>

            <div style=""width:200px;
            margin-bottom: 40px;
            margin-top: 50px;"">
            <p style=""top:40%;right:0%; position:relative;"">Choose your confidence for the jar which the beads are drawn from:</p>
            <div style=""width:10px; float: left;"">
            <p><img src=""img/red_jar_piechart.png"" style=""width:30px; top:43px""/></p>
            </div>
            <div style=""width: 25px; float: right;"">
            <p><img src=""img/green_jar_piechart.png"" style=""width:30px; top:43px""/></p>
            </div>
            </div>

            ","true","img/agent_choices_piechart/85.png","img/agent_choices_piechart/40.png","img/bead_samples/0.7.png","html-slider-response","3420","238023","0.0-3420.0","R_1hRJvs7Y7RvMc3s","",""
"364","50","

            <div style=""z-index: -1"">

            <img src=""img/bead_samples/0.9.png""
             style=""position:absolute;
             top:55%;
             left:25%;
             transform: translate(-50%, -50%);
             height:300px;
             width:auto;
             ""/>

            <img src='img/jar_covered_opened.png'
            style=""position:absolute;
            z-index: -1;
            top:50%;
            left:53%;
            height: 600px;
            margin-top:-430px;
            margin-left:-290px""/>

            <img src=""img/faces/19.png""
            style=""position:absolute;
             top:10%;
             left:85%;
             height:200px;
             width:auto;""/>

            <img src=""img/faces/20.png""
            style=""position:absolute;
             top:50%;
             left:85%;
             height:200px;
             width:auto;""/>

             <img src=""img/agent_choices_piechart/90.png""
            style=""position:absolute;
             top:27%;
             left:70%;
             height:30px;
             width:auto;""/>

             <img src=""img/agent_choices_piechart/25.png""
            style=""position:absolute;
             top:67%;
             left:70%;
             height:30px;
             width:auto;""/>
            </div>

            <div style=""width:200px;
            margin-bottom: 40px;
            margin-top: 50px;"">
            <p style=""top:40%;right:0%; position:relative;"">Choose your confidence for the jar which the beads are drawn from:</p>
            <div style=""width:10px; float: left;"">
            <p><img src=""img/red_jar_piechart.png"" style=""width:30px; top:43px""/></p>
            </div>
            <div style=""width: 25px; float: right;"">
            <p><img src=""img/green_jar_piechart.png"" style=""width:30px; top:43px""/></p>
            </div>
            </div>

            ","true","img/agent_choices_piechart/90.png","img/agent_choices_piechart/25.png","img/bead_samples/0.9.png","html-slider-response","3482","239535","0.0-3482.0","R_1hRJvs7Y7RvMc3s","",""
"340","50","

            <div style=""z-index: -1"">

            <img src=""img/bead_samples/0.3.png""
             style=""position:absolute;
             top:55%;
             left:25%;
             transform: translate(-50%, -50%);
             height:300px;
             width:auto;
             ""/>

            <img src='img/jar_covered_opened.png'
            style=""position:absolute;
            z-index: -1;
            top:50%;
            left:53%;
            height: 600px;
            margin-top:-430px;
            margin-left:-290px""/>

            <img src=""img/faces/1.png""
            style=""position:absolute;
             top:10%;
             left:85%;
             height:200px;
             width:auto;""/>

            <img src=""img/faces/2.png""
            style=""position:absolute;
             top:50%;
             left:85%;
             height:200px;
             width:auto;""/>

             <img src=""img/agent_choices_piechart/35.png""
            style=""position:absolute;
             top:27%;
             left:70%;
             height:30px;
             width:auto;""/>

             <img src=""img/agent_choices_piechart/75.png""
            style=""position:absolute;
             top:67%;
             left:70%;
             height:30px;
             width:auto;""/>
            </div>

            <div style=""width:200px;
            margin-bottom: 40px;
            margin-top: 50px;"">
            <p style=""top:40%;right:0%; position:relative;"">Choose your confidence for the jar which the beads are drawn from:</p>
            <div style=""width:10px; float: left;"">
            <p><img src=""img/red_jar_piechart.png"" style=""width:30px; top:43px""/></p>
            </div>
            <div style=""width: 25px; float: right;"">
            <p><img src=""img/green_jar_piechart.png"" style=""width:30px; top:43px""/></p>
            </div>
            </div>

            ","true","img/agent_choices_piechart/35.png","img/agent_choices_piechart/75.png","img/bead_samples/0.3.png","html-slider-response","3544","241033","0.0-3544.0","R_1hRJvs7Y7RvMc3s","",""
"3203","","

            <img src=""img/red_jar_piechart.png"" alt = ""6-4"" style=""left:46%; top:40% ;width:3%; position:absolute"">
            <img src=""img/green_jar_piechart.png"" alt=""4-6"" style=""left:51%; top:40% ;width:3%; position:absolute"">

            ","true","","","","html-button-response","3545","244242","0.0-3545.0","R_1hRJvs7Y7RvMc3s","0","red"
"3872","50","

            <div style=""z-index: -1"">

            <img src=""img/bead_samples/0.6.png""
             style=""position:absolute;
             top:55%;
             left:25%;
             transform: translate(-50%, -50%);
             height:300px;
             width:auto;
             ""/>

            <img src='img/jar_covered_opened.png'
            style=""position:absolute;
            z-index: -1;
            top:50%;
            left:53%;
            height: 600px;
            margin-top:-430px;
            margin-left:-290px""/>

            <img src=""img/faces/2.png""
            style=""position:absolute;
             top:10%;
             left:85%;
             height:200px;
             width:auto;""/>

            <img src=""img/faces/3.png""
            style=""position:absolute;
             top:50%;
             left:85%;
             height:200px;
             width:auto;""/>

             <img src=""img/agent_choices_piechart/45.png""
            style=""position:absolute;
             top:27%;
             left:70%;
             height:30px;
             width:auto;""/>

             <img src=""img/agent_choices_piechart/35.png""
            style=""position:absolute;
             top:67%;
             left:70%;
             height:30px;
             width:auto;""/>
            </div>

            <div style=""width:200px;
            margin-bottom: 40px;
            margin-top: 50px;"">
            <p style=""top:40%;right:0%; position:relative;"">Choose your confidence for the jar which the beads are drawn from:</p>
            <div style=""width:10px; float: left;"">
            <p><img src=""img/red_jar_piechart.png"" style=""width:30px; top:43px""/></p>
            </div>
            <div style=""width: 25px; float: right;"">
            <p><img src=""img/green_jar_piechart.png"" style=""width:30px; top:43px""/></p>
            </div>
            </div>

            ","true","img/agent_choices_piechart/45.png","img/agent_choices_piechart/35.png","img/bead_samples/0.6.png","html-slider-response","3607","249263","0.0-3607.0","R_1hRJvs7Y7RvMc3s","",""
"500","50","

            <div style=""z-index: -1"">

            <img src=""img/bead_samples/0.3.png""
             style=""position:absolute;
             top:55%;
             left:25%;
             transform: translate(-50%, -50%);
             height:300px;
             width:auto;
             ""/>

            <img src='img/jar_covered_opened.png'
            style=""position:absolute;
            z-index: -1;
            top:50%;
            left:53%;
            height: 600px;
            margin-top:-430px;
            margin-left:-290px""/>

            <img src=""img/faces/3.png""
            style=""position:absolute;
             top:10%;
             left:85%;
             height:200px;
             width:auto;""/>

            <img src=""img/faces/4.png""
            style=""position:absolute;
             top:50%;
             left:85%;
             height:200px;
             width:auto;""/>

             <img src=""img/agent_choices_piechart/15.png""
            style=""position:absolute;
             top:27%;
             left:70%;
             height:30px;
             width:auto;""/>

             <img src=""img/agent_choices_piechart/80.png""
            style=""position:absolute;
             top:67%;
             left:70%;
             height:30px;
             width:auto;""/>
            </div>

            <div style=""width:200px;
            margin-bottom: 40px;
            margin-top: 50px;"">
            <p style=""top:40%;right:0%; position:relative;"">Choose your confidence for the jar which the beads are drawn from:</p>
            <div style=""width:10px; float: left;"">
            <p><img src=""img/red_jar_piechart.png"" style=""width:30px; top:43px""/></p>
            </div>
            <div style=""width: 25px; float: right;"">
            <p><img src=""img/green_jar_piechart.png"" style=""width:30px; top:43px""/></p>
            </div>
            </div>

            ","true","img/agent_choices_piechart/15.png","img/agent_choices_piechart/80.png","img/bead_samples/0.3.png","html-slider-response","3669","250921","0.0-3669.0","R_1hRJvs7Y7RvMc3s","",""
"413","50","

            <div style=""z-index: -1"">

            <img src=""img/bead_samples/0.7.png""
             style=""position:absolute;
             top:55%;
             left:25%;
             transform: translate(-50%, -50%);
             height:300px;
             width:auto;
             ""/>

            <img src='img/jar_covered_opened.png'
            style=""position:absolute;
            z-index: -1;
            top:50%;
            left:53%;
            height: 600px;
            margin-top:-430px;
            margin-left:-290px""/>

            <img src=""img/faces/4.png""
            style=""position:absolute;
             top:10%;
             left:85%;
             height:200px;
             width:auto;""/>

            <img src=""img/faces/5.png""
            style=""position:absolute;
             top:50%;
             left:85%;
             height:200px;
             width:auto;""/>

             <img src=""img/agent_choices_piechart/80.png""
            style=""position:absolute;
             top:27%;
             left:70%;
             height:30px;
             width:auto;""/>

             <img src=""img/agent_choices_piechart/65.png""
            style=""position:absolute;
             top:67%;
             left:70%;
             height:30px;
             width:auto;""/>
            </div>

            <div style=""width:200px;
            margin-bottom: 40px;
            margin-top: 50px;"">
            <p style=""top:40%;right:0%; position:relative;"">Choose your confidence for the jar which the beads are drawn from:</p>
            <div style=""width:10px; float: left;"">
            <p><img src=""img/red_jar_piechart.png"" style=""width:30px; top:43px""/></p>
            </div>
            <div style=""width: 25px; float: right;"">
            <p><img src=""img/green_jar_piechart.png"" style=""width:30px; top:43px""/></p>
            </div>
            </div>

            ","true","img/agent_choices_piechart/80.png","img/agent_choices_piechart/65.png","img/bead_samples/0.7.png","html-slider-response","3731","252493","0.0-3731.0","R_1hRJvs7Y7RvMc3s","",""
"471","50","

            <div style=""z-index: -1"">

            <img src=""img/bead_samples/0.4.png""
             style=""position:absolute;
             top:55%;
             left:25%;
             transform: translate(-50%, -50%);
             height:300px;
             width:auto;
             ""/>

            <img src='img/jar_covered_opened.png'
            style=""position:absolute;
            z-index: -1;
            top:50%;
            left:53%;
            height: 600px;
            margin-top:-430px;
            margin-left:-290px""/>

            <img src=""img/faces/5.png""
            style=""position:absolute;
             top:10%;
             left:85%;
             height:200px;
             width:auto;""/>

            <img src=""img/faces/6.png""
            style=""position:absolute;
             top:50%;
             left:85%;
             height:200px;
             width:auto;""/>

             <img src=""img/agent_choices_piechart/85.png""
            style=""position:absolute;
             top:27%;
             left:70%;
             height:30px;
             width:auto;""/>

             <img src=""img/agent_choices_piechart/30.png""
            style=""position:absolute;
             top:67%;
             left:70%;
             height:30px;
             width:auto;""/>
            </div>

            <div style=""width:200px;
            margin-bottom: 40px;
            margin-top: 50px;"">
            <p style=""top:40%;right:0%; position:relative;"">Choose your confidence for the jar which the beads are drawn from:</p>
            <div style=""width:10px; float: left;"">
            <p><img src=""img/red_jar_piechart.png"" style=""width:30px; top:43px""/></p>
            </div>
            <div style=""width: 25px; float: right;"">
            <p><img src=""img/green_jar_piechart.png"" style=""width:30px; top:43px""/></p>
            </div>
            </div>

            ","true","img/agent_choices_piechart/85.png","img/agent_choices_piechart/30.png","img/bead_samples/0.4.png","html-slider-response","3793","254114","0.0-3793.0","R_1hRJvs7Y7RvMc3s","",""
"475","50","

            <div style=""z-index: -1"">

            <img src=""img/bead_samples/0.6.png""
             style=""position:absolute;
             top:55%;
             left:25%;
             transform: translate(-50%, -50%);
             height:300px;
             width:auto;
             ""/>

            <img src='img/jar_covered_opened.png'
            style=""position:absolute;
            z-index: -1;
            top:50%;
            left:53%;
            height: 600px;
            margin-top:-430px;
            margin-left:-290px""/>

            <img src=""img/faces/6.png""
            style=""position:absolute;
             top:10%;
             left:85%;
             height:200px;
             width:auto;""/>

            <img src=""img/faces/7.png""
            style=""position:absolute;
             top:50%;
             left:85%;
             height:200px;
             width:auto;""/>

             <img src=""img/agent_choices_piechart/10.png""
            style=""position:absolute;
             top:27%;
             left:70%;
             height:30px;
             width:auto;""/>

             <img src=""img/agent_choices_piechart/80.png""
            style=""position:absolute;
             top:67%;
             left:70%;
             height:30px;
             width:auto;""/>
            </div>

            <div style=""width:200px;
            margin-bottom: 40px;
            margin-top: 50px;"">
            <p style=""top:40%;right:0%; position:relative;"">Choose your confidence for the jar which the beads are drawn from:</p>
            <div style=""width:10px; float: left;"">
            <p><img src=""img/red_jar_piechart.png"" style=""width:30px; top:43px""/></p>
            </div>
            <div style=""width: 25px; float: right;"">
            <p><img src=""img/green_jar_piechart.png"" style=""width:30px; top:43px""/></p>
            </div>
            </div>

            ","true","img/agent_choices_piechart/10.png","img/agent_choices_piechart/80.png","img/bead_samples/0.6.png","html-slider-response","3855","255752","0.0-3855.0","R_1hRJvs7Y7RvMc3s","",""
"460","50","

            <div style=""z-index: -1"">

            <img src=""img/bead_samples/0.8.png""
             style=""position:absolute;
             top:55%;
             left:25%;
             transform: translate(-50%, -50%);
             height:300px;
             width:auto;
             ""/>

            <img src='img/jar_covered_opened.png'
            style=""position:absolute;
            z-index: -1;
            top:50%;
            left:53%;
            height: 600px;
            margin-top:-430px;
            margin-left:-290px""/>

            <img src=""img/faces/7.png""
            style=""position:absolute;
             top:10%;
             left:85%;
             height:200px;
             width:auto;""/>

            <img src=""img/faces/8.png""
            style=""position:absolute;
             top:50%;
             left:85%;
             height:200px;
             width:auto;""/>

             <img src=""img/agent_choices_piechart/15.png""
            style=""position:absolute;
             top:27%;
             left:70%;
             height:30px;
             width:auto;""/>

             <img src=""img/agent_choices_piechart/40.png""
            style=""position:absolute;
             top:67%;
             left:70%;
             height:30px;
             width:auto;""/>
            </div>

            <div style=""width:200px;
            margin-bottom: 40px;
            margin-top: 50px;"">
            <p style=""top:40%;right:0%; position:relative;"">Choose your confidence for the jar which the beads are drawn from:</p>
            <div style=""width:10px; float: left;"">
            <p><img src=""img/red_jar_piechart.png"" style=""width:30px; top:43px""/></p>
            </div>
            <div style=""width: 25px; float: right;"">
            <p><img src=""img/green_jar_piechart.png"" style=""width:30px; top:43px""/></p>
            </div>
            </div>

            ","true","img/agent_choices_piechart/15.png","img/agent_choices_piechart/40.png","img/bead_samples/0.8.png","html-slider-response","3917","257359","0.0-3917.0","R_1hRJvs7Y7RvMc3s","",""
"549","50","

            <div style=""z-index: -1"">

            <img src=""img/bead_samples/0.9.png""
             style=""position:absolute;
             top:55%;
             left:25%;
             transform: translate(-50%, -50%);
             height:300px;
             width:auto;
             ""/>

            <img src='img/jar_covered_opened.png'
            style=""position:absolute;
            z-index: -1;
            top:50%;
            left:53%;
            height: 600px;
            margin-top:-430px;
            margin-left:-290px""/>

            <img src=""img/faces/8.png""
            style=""position:absolute;
             top:10%;
             left:85%;
             height:200px;
             width:auto;""/>

            <img src=""img/faces/9.png""
            style=""position:absolute;
             top:50%;
             left:85%;
             height:200px;
             width:auto;""/>

             <img src=""img/agent_choices_piechart/90.png""
            style=""position:absolute;
             top:27%;
             left:70%;
             height:30px;
             width:auto;""/>

             <img src=""img/agent_choices_piechart/15.png""
            style=""position:absolute;
             top:67%;
             left:70%;
             height:30px;
             width:auto;""/>
            </div>

            <div style=""width:200px;
            margin-bottom: 40px;
            margin-top: 50px;"">
            <p style=""top:40%;right:0%; position:relative;"">Choose your confidence for the jar which the beads are drawn from:</p>
            <div style=""width:10px; float: left;"">
            <p><img src=""img/red_jar_piechart.png"" style=""width:30px; top:43px""/></p>
            </div>
            <div style=""width: 25px; float: right;"">
            <p><img src=""img/green_jar_piechart.png"" style=""width:30px; top:43px""/></p>
            </div>
            </div>

            ","true","img/agent_choices_piechart/90.png","img/agent_choices_piechart/15.png","img/bead_samples/0.9.png","html-slider-response","3979","259058","0.0-3979.0","R_1hRJvs7Y7RvMc3s","",""
"149","50","

            <div style=""z-index: -1"">

            <img src=""img/bead_samples/0.1.png""
             style=""position:absolute;
             top:55%;
             left:25%;
             transform: translate(-50%, -50%);
             height:300px;
             width:auto;
             ""/>

            <img src='img/jar_covered_opened.png'
            style=""position:absolute;
            z-index: -1;
            top:50%;
            left:53%;
            height: 600px;
            margin-top:-430px;
            margin-left:-290px""/>

            <img src=""img/faces/9.png""
            style=""position:absolute;
             top:10%;
             left:85%;
             height:200px;
             width:auto;""/>

            <img src=""img/faces/10.png""
            style=""position:absolute;
             top:50%;
             left:85%;
             height:200px;
             width:auto;""/>

             <img src=""img/agent_choices_piechart/55.png""
            style=""position:absolute;
             top:27%;
             left:70%;
             height:30px;
             width:auto;""/>

             <img src=""img/agent_choices_piechart/75.png""
            style=""position:absolute;
             top:67%;
             left:70%;
             height:30px;
             width:auto;""/>
            </div>

            <div style=""width:200px;
            margin-bottom: 40px;
            margin-top: 50px;"">
            <p style=""top:40%;right:0%; position:relative;"">Choose your confidence for the jar which the beads are drawn from:</p>
            <div style=""width:10px; float: left;"">
            <p><img src=""img/red_jar_piechart.png"" style=""width:30px; top:43px""/></p>
            </div>
            <div style=""width: 25px; float: right;"">
            <p><img src=""img/green_jar_piechart.png"" style=""width:30px; top:43px""/></p>
            </div>
            </div>

            ","true","img/agent_choices_piechart/55.png","img/agent_choices_piechart/75.png","img/bead_samples/0.1.png","html-slider-response","4041","260355","0.0-4041.0","R_1hRJvs7Y7RvMc3s","",""
"324","50","

            <div style=""z-index: -1"">

            <img src=""img/bead_samples/0.8.png""
             style=""position:absolute;
             top:55%;
             left:25%;
             transform: translate(-50%, -50%);
             height:300px;
             width:auto;
             ""/>

            <img src='img/jar_covered_opened.png'
            style=""position:absolute;
            z-index: -1;
            top:50%;
            left:53%;
            height: 600px;
            margin-top:-430px;
            margin-left:-290px""/>

            <img src=""img/faces/10.png""
            style=""position:absolute;
             top:10%;
             left:85%;
             height:200px;
             width:auto;""/>

            <img src=""img/faces/11.png""
            style=""position:absolute;
             top:50%;
             left:85%;
             height:200px;
             width:auto;""/>

             <img src=""img/agent_choices_piechart/45.png""
            style=""position:absolute;
             top:27%;
             left:70%;
             height:30px;
             width:auto;""/>

             <img src=""img/agent_choices_piechart/75.png""
            style=""position:absolute;
             top:67%;
             left:70%;
             height:30px;
             width:auto;""/>
            </div>

            <div style=""width:200px;
            margin-bottom: 40px;
            margin-top: 50px;"">
            <p style=""top:40%;right:0%; position:relative;"">Choose your confidence for the jar which the beads are drawn from:</p>
            <div style=""width:10px; float: left;"">
            <p><img src=""img/red_jar_piechart.png"" style=""width:30px; top:43px""/></p>
            </div>
            <div style=""width: 25px; float: right;"">
            <p><img src=""img/green_jar_piechart.png"" style=""width:30px; top:43px""/></p>
            </div>
            </div>

            ","true","img/agent_choices_piechart/45.png","img/agent_choices_piechart/75.png","img/bead_samples/0.8.png","html-slider-response","4103","261822","0.0-4103.0","R_1hRJvs7Y7RvMc3s","",""
"416","50","

            <div style=""z-index: -1"">

            <img src=""img/bead_samples/0.5.png""
             style=""position:absolute;
             top:55%;
             left:25%;
             transform: translate(-50%, -50%);
             height:300px;
             width:auto;
             ""/>

            <img src='img/jar_covered_opened.png'
            style=""position:absolute;
            z-index: -1;
            top:50%;
            left:53%;
            height: 600px;
            margin-top:-430px;
            margin-left:-290px""/>

            <img src=""img/faces/11.png""
            style=""position:absolute;
             top:10%;
             left:85%;
             height:200px;
             width:auto;""/>

            <img src=""img/faces/12.png""
            style=""position:absolute;
             top:50%;
             left:85%;
             height:200px;
             width:auto;""/>

             <img src=""img/agent_choices_piechart/50.png""
            style=""position:absolute;
             top:27%;
             left:70%;
             height:30px;
             width:auto;""/>

             <img src=""img/agent_choices_piechart/70.png""
            style=""position:absolute;
             top:67%;
             left:70%;
             height:30px;
             width:auto;""/>
            </div>

            <div style=""width:200px;
            margin-bottom: 40px;
            margin-top: 50px;"">
            <p style=""top:40%;right:0%; position:relative;"">Choose your confidence for the jar which the beads are drawn from:</p>
            <div style=""width:10px; float: left;"">
            <p><img src=""img/red_jar_piechart.png"" style=""width:30px; top:43px""/></p>
            </div>
            <div style=""width: 25px; float: right;"">
            <p><img src=""img/green_jar_piechart.png"" style=""width:30px; top:43px""/></p>
            </div>
            </div>

            ","true","img/agent_choices_piechart/50.png","img/agent_choices_piechart/70.png","img/bead_samples/0.5.png","html-slider-response","4165","263393","0.0-4165.0","R_1hRJvs7Y7RvMc3s","",""
"377","50","

            <div style=""z-index: -1"">

            <img src=""img/bead_samples/0.1.png""
             style=""position:absolute;
             top:55%;
             left:25%;
             transform: translate(-50%, -50%);
             height:300px;
             width:auto;
             ""/>

            <img src='img/jar_covered_opened.png'
            style=""position:absolute;
            z-index: -1;
            top:50%;
            left:53%;
            height: 600px;
            margin-top:-430px;
            margin-left:-290px""/>

            <img src=""img/faces/12.png""
            style=""position:absolute;
             top:10%;
             left:85%;
             height:200px;
             width:auto;""/>

            <img src=""img/faces/13.png""
            style=""position:absolute;
             top:50%;
             left:85%;
             height:200px;
             width:auto;""/>

             <img src=""img/agent_choices_piechart/20.png""
            style=""position:absolute;
             top:27%;
             left:70%;
             height:30px;
             width:auto;""/>

             <img src=""img/agent_choices_piechart/75.png""
            style=""position:absolute;
             top:67%;
             left:70%;
             height:30px;
             width:auto;""/>
            </div>

            <div style=""width:200px;
            margin-bottom: 40px;
            margin-top: 50px;"">
            <p style=""top:40%;right:0%; position:relative;"">Choose your confidence for the jar which the beads are drawn from:</p>
            <div style=""width:10px; float: left;"">
            <p><img src=""img/red_jar_piechart.png"" style=""width:30px; top:43px""/></p>
            </div>
            <div style=""width: 25px; float: right;"">
            <p><img src=""img/green_jar_piechart.png"" style=""width:30px; top:43px""/></p>
            </div>
            </div>

            ","true","img/agent_choices_piechart/20.png","img/agent_choices_piechart/75.png","img/bead_samples/0.1.png","html-slider-response","4227","264910","0.0-4227.0","R_1hRJvs7Y7RvMc3s","",""
"501","50","

            <div style=""z-index: -1"">

            <img src=""img/bead_samples/0.1.png""
             style=""position:absolute;
             top:55%;
             left:25%;
             transform: translate(-50%, -50%);
             height:300px;
             width:auto;
             ""/>

            <img src='img/jar_covered_opened.png'
            style=""position:absolute;
            z-index: -1;
            top:50%;
            left:53%;
            height: 600px;
            margin-top:-430px;
            margin-left:-290px""/>

            <img src=""img/faces/13.png""
            style=""position:absolute;
             top:10%;
             left:85%;
             height:200px;
             width:auto;""/>

            <img src=""img/faces/14.png""
            style=""position:absolute;
             top:50%;
             left:85%;
             height:200px;
             width:auto;""/>

             <img src=""img/agent_choices_piechart/75.png""
            style=""position:absolute;
             top:27%;
             left:70%;
             height:30px;
             width:auto;""/>

             <img src=""img/agent_choices_piechart/75.png""
            style=""position:absolute;
             top:67%;
             left:70%;
             height:30px;
             width:auto;""/>
            </div>

            <div style=""width:200px;
            margin-bottom: 40px;
            margin-top: 50px;"">
            <p style=""top:40%;right:0%; position:relative;"">Choose your confidence for the jar which the beads are drawn from:</p>
            <div style=""width:10px; float: left;"">
            <p><img src=""img/red_jar_piechart.png"" style=""width:30px; top:43px""/></p>
            </div>
            <div style=""width: 25px; float: right;"">
            <p><img src=""img/green_jar_piechart.png"" style=""width:30px; top:43px""/></p>
            </div>
            </div>

            ","true","img/agent_choices_piechart/75.png","img/agent_choices_piechart/75.png","img/bead_samples/0.1.png","html-slider-response","4289","266559","0.0-4289.0","R_1hRJvs7Y7RvMc3s","",""
"240","50","

            <div style=""z-index: -1"">

            <img src=""img/bead_samples/0.4.png""
             style=""position:absolute;
             top:55%;
             left:25%;
             transform: translate(-50%, -50%);
             height:300px;
             width:auto;
             ""/>

            <img src='img/jar_covered_opened.png'
            style=""position:absolute;
            z-index: -1;
            top:50%;
            left:53%;
            height: 600px;
            margin-top:-430px;
            margin-left:-290px""/>

            <img src=""img/faces/14.png""
            style=""position:absolute;
             top:10%;
             left:85%;
             height:200px;
             width:auto;""/>

            <img src=""img/faces/15.png""
            style=""position:absolute;
             top:50%;
             left:85%;
             height:200px;
             width:auto;""/>

             <img src=""img/agent_choices_piechart/45.png""
            style=""position:absolute;
             top:27%;
             left:70%;
             height:30px;
             width:auto;""/>

             <img src=""img/agent_choices_piechart/65.png""
            style=""position:absolute;
             top:67%;
             left:70%;
             height:30px;
             width:auto;""/>
            </div>

            <div style=""width:200px;
            margin-bottom: 40px;
            margin-top: 50px;"">
            <p style=""top:40%;right:0%; position:relative;"">Choose your confidence for the jar which the beads are drawn from:</p>
            <div style=""width:10px; float: left;"">
            <p><img src=""img/red_jar_piechart.png"" style=""width:30px; top:43px""/></p>
            </div>
            <div style=""width: 25px; float: right;"">
            <p><img src=""img/green_jar_piechart.png"" style=""width:30px; top:43px""/></p>
            </div>
            </div>

            ","true","img/agent_choices_piechart/45.png","img/agent_choices_piechart/65.png","img/bead_samples/0.4.png","html-slider-response","4351","267954","0.0-4351.0","R_1hRJvs7Y7RvMc3s","",""
"324","50","

            <div style=""z-index: -1"">

            <img src=""img/bead_samples/0.5.png""
             style=""position:absolute;
             top:55%;
             left:25%;
             transform: translate(-50%, -50%);
             height:300px;
             width:auto;
             ""/>

            <img src='img/jar_covered_opened.png'
            style=""position:absolute;
            z-index: -1;
            top:50%;
            left:53%;
            height: 600px;
            margin-top:-430px;
            margin-left:-290px""/>

            <img src=""img/faces/15.png""
            style=""position:absolute;
             top:10%;
             left:85%;
             height:200px;
             width:auto;""/>

            <img src=""img/faces/16.png""
            style=""position:absolute;
             top:50%;
             left:85%;
             height:200px;
             width:auto;""/>

             <img src=""img/agent_choices_piechart/30.png""
            style=""position:absolute;
             top:27%;
             left:70%;
             height:30px;
             width:auto;""/>

             <img src=""img/agent_choices_piechart/20.png""
            style=""position:absolute;
             top:67%;
             left:70%;
             height:30px;
             width:auto;""/>
            </div>

            <div style=""width:200px;
            margin-bottom: 40px;
            margin-top: 50px;"">
            <p style=""top:40%;right:0%; position:relative;"">Choose your confidence for the jar which the beads are drawn from:</p>
            <div style=""width:10px; float: left;"">
            <p><img src=""img/red_jar_piechart.png"" style=""width:30px; top:43px""/></p>
            </div>
            <div style=""width: 25px; float: right;"">
            <p><img src=""img/green_jar_piechart.png"" style=""width:30px; top:43px""/></p>
            </div>
            </div>

            ","true","img/agent_choices_piechart/30.png","img/agent_choices_piechart/20.png","img/bead_samples/0.5.png","html-slider-response","4413","269428","0.0-4413.0","R_1hRJvs7Y7RvMc3s","",""
"288","50","

            <div style=""z-index: -1"">

            <img src=""img/bead_samples/0.8.png""
             style=""position:absolute;
             top:55%;
             left:25%;
             transform: translate(-50%, -50%);
             height:300px;
             width:auto;
             ""/>

            <img src='img/jar_covered_opened.png'
            style=""position:absolute;
            z-index: -1;
            top:50%;
            left:53%;
            height: 600px;
            margin-top:-430px;
            margin-left:-290px""/>

            <img src=""img/faces/16.png""
            style=""position:absolute;
             top:10%;
             left:85%;
             height:200px;
             width:auto;""/>

            <img src=""img/faces/17.png""
            style=""position:absolute;
             top:50%;
             left:85%;
             height:200px;
             width:auto;""/>

             <img src=""img/agent_choices_piechart/20.png""
            style=""position:absolute;
             top:27%;
             left:70%;
             height:30px;
             width:auto;""/>

             <img src=""img/agent_choices_piechart/60.png""
            style=""position:absolute;
             top:67%;
             left:70%;
             height:30px;
             width:auto;""/>
            </div>

            <div style=""width:200px;
            margin-bottom: 40px;
            margin-top: 50px;"">
            <p style=""top:40%;right:0%; position:relative;"">Choose your confidence for the jar which the beads are drawn from:</p>
            <div style=""width:10px; float: left;"">
            <p><img src=""img/red_jar_piechart.png"" style=""width:30px; top:43px""/></p>
            </div>
            <div style=""width: 25px; float: right;"">
            <p><img src=""img/green_jar_piechart.png"" style=""width:30px; top:43px""/></p>
            </div>
            </div>

            ","true","img/agent_choices_piechart/20.png","img/agent_choices_piechart/60.png","img/bead_samples/0.8.png","html-slider-response","4475","270872","0.0-4475.0","R_1hRJvs7Y7RvMc3s","",""
"365","50","

            <div style=""z-index: -1"">

            <img src=""img/bead_samples/0.4.png""
             style=""position:absolute;
             top:55%;
             left:25%;
             transform: translate(-50%, -50%);
             height:300px;
             width:auto;
             ""/>

            <img src='img/jar_covered_opened.png'
            style=""position:absolute;
            z-index: -1;
            top:50%;
            left:53%;
            height: 600px;
            margin-top:-430px;
            margin-left:-290px""/>

            <img src=""img/faces/17.png""
            style=""position:absolute;
             top:10%;
             left:85%;
             height:200px;
             width:auto;""/>

            <img src=""img/faces/18.png""
            style=""position:absolute;
             top:50%;
             left:85%;
             height:200px;
             width:auto;""/>

             <img src=""img/agent_choices_piechart/10.png""
            style=""position:absolute;
             top:27%;
             left:70%;
             height:30px;
             width:auto;""/>

             <img src=""img/agent_choices_piechart/80.png""
            style=""position:absolute;
             top:67%;
             left:70%;
             height:30px;
             width:auto;""/>
            </div>

            <div style=""width:200px;
            margin-bottom: 40px;
            margin-top: 50px;"">
            <p style=""top:40%;right:0%; position:relative;"">Choose your confidence for the jar which the beads are drawn from:</p>
            <div style=""width:10px; float: left;"">
            <p><img src=""img/red_jar_piechart.png"" style=""width:30px; top:43px""/></p>
            </div>
            <div style=""width: 25px; float: right;"">
            <p><img src=""img/green_jar_piechart.png"" style=""width:30px; top:43px""/></p>
            </div>
            </div>

            ","true","img/agent_choices_piechart/10.png","img/agent_choices_piechart/80.png","img/bead_samples/0.4.png","html-slider-response","4537","272381","0.0-4537.0","R_1hRJvs7Y7RvMc3s","",""
"426","50","

            <div style=""z-index: -1"">

            <img src=""img/bead_samples/0.3.png""
             style=""position:absolute;
             top:55%;
             left:25%;
             transform: translate(-50%, -50%);
             height:300px;
             width:auto;
             ""/>

            <img src='img/jar_covered_opened.png'
            style=""position:absolute;
            z-index: -1;
            top:50%;
            left:53%;
            height: 600px;
            margin-top:-430px;
            margin-left:-290px""/>

            <img src=""img/faces/18.png""
            style=""position:absolute;
             top:10%;
             left:85%;
             height:200px;
             width:auto;""/>

            <img src=""img/faces/19.png""
            style=""position:absolute;
             top:50%;
             left:85%;
             height:200px;
             width:auto;""/>

             <img src=""img/agent_choices_piechart/75.png""
            style=""position:absolute;
             top:27%;
             left:70%;
             height:30px;
             width:auto;""/>

             <img src=""img/agent_choices_piechart/75.png""
            style=""position:absolute;
             top:67%;
             left:70%;
             height:30px;
             width:auto;""/>
            </div>

            <div style=""width:200px;
            margin-bottom: 40px;
            margin-top: 50px;"">
            <p style=""top:40%;right:0%; position:relative;"">Choose your confidence for the jar which the beads are drawn from:</p>
            <div style=""width:10px; float: left;"">
            <p><img src=""img/red_jar_piechart.png"" style=""width:30px; top:43px""/></p>
            </div>
            <div style=""width: 25px; float: right;"">
            <p><img src=""img/green_jar_piechart.png"" style=""width:30px; top:43px""/></p>
            </div>
            </div>

            ","true","img/agent_choices_piechart/75.png","img/agent_choices_piechart/75.png","img/bead_samples/0.3.png","html-slider-response","4599","273954","0.0-4599.0","R_1hRJvs7Y7RvMc3s","",""
"299","50","

            <div style=""z-index: -1"">

            <img src=""img/bead_samples/0.1.png""
             style=""position:absolute;
             top:55%;
             left:25%;
             transform: translate(-50%, -50%);
             height:300px;
             width:auto;
             ""/>

            <img src='img/jar_covered_opened.png'
            style=""position:absolute;
            z-index: -1;
            top:50%;
            left:53%;
            height: 600px;
            margin-top:-430px;
            margin-left:-290px""/>

            <img src=""img/faces/19.png""
            style=""position:absolute;
             top:10%;
             left:85%;
             height:200px;
             width:auto;""/>

            <img src=""img/faces/20.png""
            style=""position:absolute;
             top:50%;
             left:85%;
             height:200px;
             width:auto;""/>

             <img src=""img/agent_choices_piechart/40.png""
            style=""position:absolute;
             top:27%;
             left:70%;
             height:30px;
             width:auto;""/>

             <img src=""img/agent_choices_piechart/75.png""
            style=""position:absolute;
             top:67%;
             left:70%;
             height:30px;
             width:auto;""/>
            </div>

            <div style=""width:200px;
            margin-bottom: 40px;
            margin-top: 50px;"">
            <p style=""top:40%;right:0%; position:relative;"">Choose your confidence for the jar which the beads are drawn from:</p>
            <div style=""width:10px; float: left;"">
            <p><img src=""img/red_jar_piechart.png"" style=""width:30px; top:43px""/></p>
            </div>
            <div style=""width: 25px; float: right;"">
            <p><img src=""img/green_jar_piechart.png"" style=""width:30px; top:43px""/></p>
            </div>
            </div>

            ","true","img/agent_choices_piechart/40.png","img/agent_choices_piechart/75.png","img/bead_samples/0.1.png","html-slider-response","4661","275406","0.0-4661.0","R_1hRJvs7Y7RvMc3s","",""
"280","50","

            <div style=""z-index: -1"">

            <img src=""img/bead_samples/0.1.png""
             style=""position:absolute;
             top:55%;
             left:25%;
             transform: translate(-50%, -50%);
             height:300px;
             width:auto;
             ""/>

            <img src='img/jar_covered_opened.png'
            style=""position:absolute;
            z-index: -1;
            top:50%;
            left:53%;
            height: 600px;
            margin-top:-430px;
            margin-left:-290px""/>

            <img src=""img/faces/1.png""
            style=""position:absolute;
             top:10%;
             left:85%;
             height:200px;
             width:auto;""/>

            <img src=""img/faces/2.png""
            style=""position:absolute;
             top:50%;
             left:85%;
             height:200px;
             width:auto;""/>

             <img src=""img/agent_choices_piechart/25.png""
            style=""position:absolute;
             top:27%;
             left:70%;
             height:30px;
             width:auto;""/>

             <img src=""img/agent_choices_piechart/65.png""
            style=""position:absolute;
             top:67%;
             left:70%;
             height:30px;
             width:auto;""/>
            </div>

            <div style=""width:200px;
            margin-bottom: 40px;
            margin-top: 50px;"">
            <p style=""top:40%;right:0%; position:relative;"">Choose your confidence for the jar which the beads are drawn from:</p>
            <div style=""width:10px; float: left;"">
            <p><img src=""img/red_jar_piechart.png"" style=""width:30px; top:43px""/></p>
            </div>
            <div style=""width: 25px; float: right;"">
            <p><img src=""img/green_jar_piechart.png"" style=""width:30px; top:43px""/></p>
            </div>
            </div>

            ","true","img/agent_choices_piechart/25.png","img/agent_choices_piechart/65.png","img/bead_samples/0.1.png","html-slider-response","4723","276816","0.0-4723.0","R_1hRJvs7Y7RvMc3s","",""
"123","50","

            <div style=""z-index: -1"">

            <img src=""img/bead_samples/0.4.png""
             style=""position:absolute;
             top:55%;
             left:25%;
             transform: translate(-50%, -50%);
             height:300px;
             width:auto;
             ""/>

            <img src='img/jar_covered_opened.png'
            style=""position:absolute;
            z-index: -1;
            top:50%;
            left:53%;
            height: 600px;
            margin-top:-430px;
            margin-left:-290px""/>

            <img src=""img/faces/2.png""
            style=""position:absolute;
             top:10%;
             left:85%;
             height:200px;
             width:auto;""/>

            <img src=""img/faces/3.png""
            style=""position:absolute;
             top:50%;
             left:85%;
             height:200px;
             width:auto;""/>

             <img src=""img/agent_choices_piechart/65.png""
            style=""position:absolute;
             top:27%;
             left:70%;
             height:30px;
             width:auto;""/>

             <img src=""img/agent_choices_piechart/85.png""
            style=""position:absolute;
             top:67%;
             left:70%;
             height:30px;
             width:auto;""/>
            </div>

            <div style=""width:200px;
            margin-bottom: 40px;
            margin-top: 50px;"">
            <p style=""top:40%;right:0%; position:relative;"">Choose your confidence for the jar which the beads are drawn from:</p>
            <div style=""width:10px; float: left;"">
            <p><img src=""img/red_jar_piechart.png"" style=""width:30px; top:43px""/></p>
            </div>
            <div style=""width: 25px; float: right;"">
            <p><img src=""img/green_jar_piechart.png"" style=""width:30px; top:43px""/></p>
            </div>
            </div>

            ","true","img/agent_choices_piechart/65.png","img/agent_choices_piechart/85.png","img/bead_samples/0.4.png","html-slider-response","4785","278091","0.0-4785.0","R_1hRJvs7Y7RvMc3s","",""
"1871","","

            <img src=""img/red_jar_piechart.png"" alt = ""6-4"" style=""left:46%; top:40% ;width:3%; position:absolute"">
            <img src=""img/green_jar_piechart.png"" alt=""4-6"" style=""left:51%; top:40% ;width:3%; position:absolute"">

            ","true","","","","html-button-response","4786","279967","0.0-4786.0","R_1hRJvs7Y7RvMc3s","1","green"
"445","50","

            <div style=""z-index: -1"">

            <img src=""img/bead_samples/0.3.png""
             style=""position:absolute;
             top:55%;
             left:25%;
             transform: translate(-50%, -50%);
             height:300px;
             width:auto;
             ""/>

            <img src='img/jar_covered_opened.png'
            style=""position:absolute;
            z-index: -1;
            top:50%;
            left:53%;
            height: 600px;
            margin-top:-430px;
            margin-left:-290px""/>

            <img src=""img/faces/3.png""
            style=""position:absolute;
             top:10%;
             left:85%;
             height:200px;
             width:auto;""/>

            <img src=""img/faces/4.png""
            style=""position:absolute;
             top:50%;
             left:85%;
             height:200px;
             width:auto;""/>

             <img src=""img/agent_choices_piechart/75.png""
            style=""position:absolute;
             top:27%;
             left:70%;
             height:30px;
             width:auto;""/>

             <img src=""img/agent_choices_piechart/60.png""
            style=""position:absolute;
             top:67%;
             left:70%;
             height:30px;
             width:auto;""/>
            </div>

            <div style=""width:200px;
            margin-bottom: 40px;
            margin-top: 50px;"">
            <p style=""top:40%;right:0%; position:relative;"">Choose your confidence for the jar which the beads are drawn from:</p>
            <div style=""width:10px; float: left;"">
            <p><img src=""img/red_jar_piechart.png"" style=""width:30px; top:43px""/></p>
            </div>
            <div style=""width: 25px; float: right;"">
            <p><img src=""img/green_jar_piechart.png"" style=""width:30px; top:43px""/></p>
            </div>
            </div>

            ","true","img/agent_choices_piechart/75.png","img/agent_choices_piechart/60.png","img/bead_samples/0.3.png","html-slider-response","4848","281561","0.0-4848.0","R_1hRJvs7Y7RvMc3s","",""
"342","50","

            <div style=""z-index: -1"">

            <img src=""img/bead_samples/0.7.png""
             style=""position:absolute;
             top:55%;
             left:25%;
             transform: translate(-50%, -50%);
             height:300px;
             width:auto;
             ""/>

            <img src='img/jar_covered_opened.png'
            style=""position:absolute;
            z-index: -1;
            top:50%;
            left:53%;
            height: 600px;
            margin-top:-430px;
            margin-left:-290px""/>

            <img src=""img/faces/4.png""
            style=""position:absolute;
             top:10%;
             left:85%;
             height:200px;
             width:auto;""/>

            <img src=""img/faces/5.png""
            style=""position:absolute;
             top:50%;
             left:85%;
             height:200px;
             width:auto;""/>

             <img src=""img/agent_choices_piechart/20.png""
            style=""position:absolute;
             top:27%;
             left:70%;
             height:30px;
             width:auto;""/>

             <img src=""img/agent_choices_piechart/55.png""
            style=""position:absolute;
             top:67%;
             left:70%;
             height:30px;
             width:auto;""/>
            </div>

            <div style=""width:200px;
            margin-bottom: 40px;
            margin-top: 50px;"">
            <p style=""top:40%;right:0%; position:relative;"">Choose your confidence for the jar which the beads are drawn from:</p>
            <div style=""width:10px; float: left;"">
            <p><img src=""img/red_jar_piechart.png"" style=""width:30px; top:43px""/></p>
            </div>
            <div style=""width: 25px; float: right;"">
            <p><img src=""img/green_jar_piechart.png"" style=""width:30px; top:43px""/></p>
            </div>
            </div>

            ","true","img/agent_choices_piechart/20.png","img/agent_choices_piechart/55.png","img/bead_samples/0.7.png","html-slider-response","4910","283048","0.0-4910.0","R_1hRJvs7Y7RvMc3s","",""
"204","50","

            <div style=""z-index: -1"">

            <img src=""img/bead_samples/0.3.png""
             style=""position:absolute;
             top:55%;
             left:25%;
             transform: translate(-50%, -50%);
             height:300px;
             width:auto;
             ""/>

            <img src='img/jar_covered_opened.png'
            style=""position:absolute;
            z-index: -1;
            top:50%;
            left:53%;
            height: 600px;
            margin-top:-430px;
            margin-left:-290px""/>

            <img src=""img/faces/5.png""
            style=""position:absolute;
             top:10%;
             left:85%;
             height:200px;
             width:auto;""/>

            <img src=""img/faces/6.png""
            style=""position:absolute;
             top:50%;
             left:85%;
             height:200px;
             width:auto;""/>

             <img src=""img/agent_choices_piechart/55.png""
            style=""position:absolute;
             top:27%;
             left:70%;
             height:30px;
             width:auto;""/>

             <img src=""img/agent_choices_piechart/25.png""
            style=""position:absolute;
             top:67%;
             left:70%;
             height:30px;
             width:auto;""/>
            </div>

            <div style=""width:200px;
            margin-bottom: 40px;
            margin-top: 50px;"">
            <p style=""top:40%;right:0%; position:relative;"">Choose your confidence for the jar which the beads are drawn from:</p>
            <div style=""width:10px; float: left;"">
            <p><img src=""img/red_jar_piechart.png"" style=""width:30px; top:43px""/></p>
            </div>
            <div style=""width: 25px; float: right;"">
            <p><img src=""img/green_jar_piechart.png"" style=""width:30px; top:43px""/></p>
            </div>
            </div>

            ","true","img/agent_choices_piechart/55.png","img/agent_choices_piechart/25.png","img/bead_samples/0.3.png","html-slider-response","4972","284408","0.0-4972.0","R_1hRJvs7Y7RvMc3s","",""
"239","50","

            <div style=""z-index: -1"">

            <img src=""img/bead_samples/0.3.png""
             style=""position:absolute;
             top:55%;
             left:25%;
             transform: translate(-50%, -50%);
             height:300px;
             width:auto;
             ""/>

            <img src='img/jar_covered_opened.png'
            style=""position:absolute;
            z-index: -1;
            top:50%;
            left:53%;
            height: 600px;
            margin-top:-430px;
            margin-left:-290px""/>

            <img src=""img/faces/6.png""
            style=""position:absolute;
             top:10%;
             left:85%;
             height:200px;
             width:auto;""/>

            <img src=""img/faces/7.png""
            style=""position:absolute;
