"rt","response","stimulus","participant_response","agent_decision_1","agent_decision_2","beads_shown","trial_type","trial_index","time_elapsed","internal_node_id","subject_id","button_pressed","color"
"956.9000000953674","50","

            <div style=""z-index: -1"">

            <img src=""img/bead_samples/0.7.png""
             style=""position:absolute;
             top:55%;
             left:25%;
             transform: translate(-50%, -50%);
             height:300px;
             width:auto;
             ""/>

            <img src='img/jar_covered_opened.png'
            style=""position:absolute;
            z-index: -1;
            top:50%;
            left:53%;
            height: 600px;
            margin-top:-430px;
            margin-left:-290px""/>

            <img src=""img/faces/1.png""
            style=""position:absolute;
             top:10%;
             left:85%;
             height:200px;
             width:auto;""/>

            <img src=""img/faces/2.png""
            style=""position:absolute;
             top:50%;
             left:85%;
             height:200px;
             width:auto;""/>

             <img src=""img/agent_choices_piechart/15.png""
            style=""position:absolute;
             top:27%;
             left:70%;
             height:30px;
             width:auto;""/>

             <img src=""img/agent_choices_piechart/20.png""
            style=""position:absolute;
             top:67%;
             left:70%;
             height:30px;
             width:auto;""/>
            </div>

            <div style=""width:200px;
            margin-bottom: 40px;
            margin-top: 50px;"">
            <p style=""top:40%;right:0%; position:relative;"">Choose your confidence for the jar which the beads are drawn from:</p>
            <div style=""width:10px; float: left;"">
            <p><img src=""img/red_jar_piechart.png"" style=""width:30px; top:43px""/></p>
            </div>
            <div style=""width: 25px; float: right;"">
            <p><img src=""img/green_jar_piechart.png"" style=""width:30px; top:43px""/></p>
            </div>
            </div>

            ","true","img/agent_choices_piechart/15.png","img/agent_choices_piechart/20.png","img/bead_samples/0.7.png","html-slider-response","1288","28772","0.0-1288.0","R_3iwM92zaykHHi0f","",""
"1121.3999998569489","50","

            <div style=""z-index: -1"">

            <img src=""img/bead_samples/0.3.png""
             style=""position:absolute;
             top:55%;
             left:25%;
             transform: translate(-50%, -50%);
             height:300px;
             width:auto;
             ""/>

            <img src='img/jar_covered_opened.png'
            style=""position:absolute;
            z-index: -1;
            top:50%;
            left:53%;
            height: 600px;
            margin-top:-430px;
            margin-left:-290px""/>

            <img src=""img/faces/2.png""
            style=""position:absolute;
             top:10%;
             left:85%;
             height:200px;
             width:auto;""/>

            <img src=""img/faces/3.png""
            style=""position:absolute;
             top:50%;
             left:85%;
             height:200px;
             width:auto;""/>

             <img src=""img/agent_choices_piechart/50.png""
            style=""position:absolute;
             top:27%;
             left:70%;
             height:30px;
             width:auto;""/>

             <img src=""img/agent_choices_piechart/40.png""
            style=""position:absolute;
             top:67%;
             left:70%;
             height:30px;
             width:auto;""/>
            </div>

            <div style=""width:200px;
            margin-bottom: 40px;
            margin-top: 50px;"">
            <p style=""top:40%;right:0%; position:relative;"">Choose your confidence for the jar which the beads are drawn from:</p>
            <div style=""width:10px; float: left;"">
            <p><img src=""img/red_jar_piechart.png"" style=""width:30px; top:43px""/></p>
            </div>
            <div style=""width: 25px; float: right;"">
            <p><img src=""img/green_jar_piechart.png"" style=""width:30px; top:43px""/></p>
            </div>
            </div>

            ","true","img/agent_choices_piechart/50.png","img/agent_choices_piechart/40.png","img/bead_samples/0.3.png","html-slider-response","1795","37136","0.0-1795.0","R_3iwM92zaykHHi0f","",""
"1057.7000000476837","50","

            <div style=""z-index: -1"">

            <img src=""img/bead_samples/0.4.png""
             style=""position:absolute;
             top:55%;
             left:25%;
             transform: translate(-50%, -50%);
             height:300px;
             width:auto;
             ""/>

            <img src='img/jar_covered_opened.png'
            style=""position:absolute;
            z-index: -1;
            top:50%;
            left:53%;
            height: 600px;
            margin-top:-430px;
            margin-left:-290px""/>

            <img src=""img/faces/3.png""
            style=""position:absolute;
             top:10%;
             left:85%;
             height:200px;
             width:auto;""/>

            <img src=""img/faces/4.png""
            style=""position:absolute;
             top:50%;
             left:85%;
             height:200px;
             width:auto;""/>

             <img src=""img/agent_choices_piechart/30.png""
            style=""position:absolute;
             top:27%;
             left:70%;
             height:30px;
             width:auto;""/>

             <img src=""img/agent_choices_piechart/50.png""
            style=""position:absolute;
             top:67%;
             left:70%;
             height:30px;
             width:auto;""/>
            </div>

            <div style=""width:200px;
            margin-bottom: 40px;
            margin-top: 50px;"">
            <p style=""top:40%;right:0%; position:relative;"">Choose your confidence for the jar which the beads are drawn from:</p>
            <div style=""width:10px; float: left;"">
            <p><img src=""img/red_jar_piechart.png"" style=""width:30px; top:43px""/></p>
            </div>
            <div style=""width: 25px; float: right;"">
            <p><img src=""img/green_jar_piechart.png"" style=""width:30px; top:43px""/></p>
            </div>
            </div>

            ","true","img/agent_choices_piechart/30.png","img/agent_choices_piechart/50.png","img/bead_samples/0.4.png","html-slider-response","2302","45518","0.0-2302.0","R_3iwM92zaykHHi0f","",""
"3094.5999999046326","","

            <img src=""img/red_jar_piechart.png"" alt = ""6-4"" style=""left:46%; top:40% ;width:3%; position:absolute"">
            <img src=""img/green_jar_piechart.png"" alt=""4-6"" style=""left:51%; top:40% ;width:3%; position:absolute"">

            ","true","","","","html-button-response","2304","49766","0.0-2304.0","R_3iwM92zaykHHi0f","0","red"
"1114.7999999523163","50","

            <div style=""z-index: -1"">

            <img src=""img/bead_samples/0.6.png""
             style=""position:absolute;
             top:55%;
             left:25%;
             transform: translate(-50%, -50%);
             height:300px;
             width:auto;
             ""/>

            <img src='img/jar_covered_opened.png'
            style=""position:absolute;
            z-index: -1;
            top:50%;
            left:53%;
            height: 600px;
            margin-top:-430px;
            margin-left:-290px""/>

            <img src=""img/faces/1.png""
            style=""position:absolute;
             top:10%;
             left:85%;
             height:200px;
             width:auto;""/>

            <img src=""img/faces/2.png""
            style=""position:absolute;
             top:50%;
             left:85%;
             height:200px;
             width:auto;""/>

             <img src=""img/agent_choices_piechart/70.png""
            style=""position:absolute;
             top:27%;
             left:70%;
             height:30px;
             width:auto;""/>

             <img src=""img/agent_choices_piechart/60.png""
            style=""position:absolute;
             top:67%;
             left:70%;
             height:30px;
             width:auto;""/>
            </div>

            <div style=""width:200px;
            margin-bottom: 40px;
            margin-top: 50px;"">
            <p style=""top:40%;right:0%; position:relative;"">Choose your confidence for the jar which the beads are drawn from:</p>
            <div style=""width:10px; float: left;"">
            <p><img src=""img/red_jar_piechart.png"" style=""width:30px; top:43px""/></p>
            </div>
            <div style=""width: 25px; float: right;"">
            <p><img src=""img/green_jar_piechart.png"" style=""width:30px; top:43px""/></p>
            </div>
            </div>

            ","true","img/agent_choices_piechart/70.png","img/agent_choices_piechart/60.png","img/bead_samples/0.6.png","html-slider-response","2366","51500","0.0-2366.0","R_3iwM92zaykHHi0f","",""
"900.4000000953674","50","

            <div style=""z-index: -1"">

            <img src=""img/bead_samples/0.4.png""
             style=""position:absolute;
             top:55%;
             left:25%;
             transform: translate(-50%, -50%);
             height:300px;
             width:auto;
             ""/>

            <img src='img/jar_covered_opened.png'
            style=""position:absolute;
            z-index: -1;
            top:50%;
            left:53%;
            height: 600px;
            margin-top:-430px;
            margin-left:-290px""/>

            <img src=""img/faces/2.png""
            style=""position:absolute;
             top:10%;
             left:85%;
             height:200px;
             width:auto;""/>

            <img src=""img/faces/3.png""
            style=""position:absolute;
             top:50%;
             left:85%;
             height:200px;
             width:auto;""/>

             <img src=""img/agent_choices_piechart/25.png""
            style=""position:absolute;
             top:27%;
             left:70%;
             height:30px;
             width:auto;""/>

             <img src=""img/agent_choices_piechart/25.png""
            style=""position:absolute;
             top:67%;
             left:70%;
             height:30px;
             width:auto;""/>
            </div>

            <div style=""width:200px;
            margin-bottom: 40px;
            margin-top: 50px;"">
            <p style=""top:40%;right:0%; position:relative;"">Choose your confidence for the jar which the beads are drawn from:</p>
            <div style=""width:10px; float: left;"">
            <p><img src=""img/red_jar_piechart.png"" style=""width:30px; top:43px""/></p>
            </div>
            <div style=""width: 25px; float: right;"">
            <p><img src=""img/green_jar_piechart.png"" style=""width:30px; top:43px""/></p>
            </div>
            </div>

            ","true","img/agent_choices_piechart/25.png","img/agent_choices_piechart/25.png","img/bead_samples/0.4.png","html-slider-response","2428","53015","0.0-2428.0","R_3iwM92zaykHHi0f","",""
"667.9000000953674","50","

            <div style=""z-index: -1"">

            <img src=""img/bead_samples/0.2.png""
             style=""position:absolute;
             top:55%;
             left:25%;
             transform: translate(-50%, -50%);
             height:300px;
             width:auto;
             ""/>

            <img src='img/jar_covered_opened.png'
            style=""position:absolute;
            z-index: -1;
            top:50%;
            left:53%;
            height: 600px;
            margin-top:-430px;
            margin-left:-290px""/>

            <img src=""img/faces/3.png""
            style=""position:absolute;
             top:10%;
             left:85%;
             height:200px;
             width:auto;""/>

            <img src=""img/faces/4.png""
            style=""position:absolute;
             top:50%;
             left:85%;
             height:200px;
             width:auto;""/>

             <img src=""img/agent_choices_piechart/80.png""
            style=""position:absolute;
             top:27%;
             left:70%;
             height:30px;
             width:auto;""/>

             <img src=""img/agent_choices_piechart/40.png""
            style=""position:absolute;
             top:67%;
             left:70%;
             height:30px;
             width:auto;""/>
            </div>

            <div style=""width:200px;
            margin-bottom: 40px;
            margin-top: 50px;"">
            <p style=""top:40%;right:0%; position:relative;"">Choose your confidence for the jar which the beads are drawn from:</p>
            <div style=""width:10px; float: left;"">
            <p><img src=""img/red_jar_piechart.png"" style=""width:30px; top:43px""/></p>
            </div>
            <div style=""width: 25px; float: right;"">
            <p><img src=""img/green_jar_piechart.png"" style=""width:30px; top:43px""/></p>
            </div>
            </div>

            ","true","img/agent_choices_piechart/80.png","img/agent_choices_piechart/40.png","img/bead_samples/0.2.png","html-slider-response","2490","54292","0.0-2490.0","R_3iwM92zaykHHi0f","",""
"654.4000000953674","50","

            <div style=""z-index: -1"">

            <img src=""img/bead_samples/0.6.png""
             style=""position:absolute;
             top:55%;
             left:25%;
             transform: translate(-50%, -50%);
             height:300px;
             width:auto;
             ""/>

            <img src='img/jar_covered_opened.png'
            style=""position:absolute;
            z-index: -1;
            top:50%;
            left:53%;
            height: 600px;
            margin-top:-430px;
            margin-left:-290px""/>

            <img src=""img/faces/4.png""
            style=""position:absolute;
             top:10%;
             left:85%;
             height:200px;
             width:auto;""/>

            <img src=""img/faces/5.png""
            style=""position:absolute;
             top:50%;
             left:85%;
             height:200px;
             width:auto;""/>

             <img src=""img/agent_choices_piechart/60.png""
            style=""position:absolute;
             top:27%;
             left:70%;
             height:30px;
             width:auto;""/>

             <img src=""img/agent_choices_piechart/40.png""
            style=""position:absolute;
             top:67%;
             left:70%;
             height:30px;
             width:auto;""/>
            </div>

            <div style=""width:200px;
            margin-bottom: 40px;
            margin-top: 50px;"">
            <p style=""top:40%;right:0%; position:relative;"">Choose your confidence for the jar which the beads are drawn from:</p>
            <div style=""width:10px; float: left;"">
            <p><img src=""img/red_jar_piechart.png"" style=""width:30px; top:43px""/></p>
            </div>
            <div style=""width: 25px; float: right;"">
            <p><img src=""img/green_jar_piechart.png"" style=""width:30px; top:43px""/></p>
            </div>
            </div>

            ","true","img/agent_choices_piechart/60.png","img/agent_choices_piechart/40.png","img/bead_samples/0.6.png","html-slider-response","2552","55561","0.0-2552.0","R_3iwM92zaykHHi0f","",""
"605.1999998092651","50","

            <div style=""z-index: -1"">

            <img src=""img/bead_samples/0.6.png""
             style=""position:absolute;
             top:55%;
             left:25%;
             transform: translate(-50%, -50%);
             height:300px;
             width:auto;
             ""/>

            <img src='img/jar_covered_opened.png'
            style=""position:absolute;
            z-index: -1;
            top:50%;
            left:53%;
            height: 600px;
            margin-top:-430px;
            margin-left:-290px""/>

            <img src=""img/faces/5.png""
            style=""position:absolute;
             top:10%;
             left:85%;
             height:200px;
             width:auto;""/>

            <img src=""img/faces/6.png""
            style=""position:absolute;
             top:50%;
             left:85%;
             height:200px;
             width:auto;""/>

             <img src=""img/agent_choices_piechart/55.png""
            style=""position:absolute;
             top:27%;
             left:70%;
             height:30px;
             width:auto;""/>

             <img src=""img/agent_choices_piechart/55.png""
            style=""position:absolute;
             top:67%;
             left:70%;
             height:30px;
             width:auto;""/>
            </div>

            <div style=""width:200px;
            margin-bottom: 40px;
            margin-top: 50px;"">
            <p style=""top:40%;right:0%; position:relative;"">Choose your confidence for the jar which the beads are drawn from:</p>
            <div style=""width:10px; float: left;"">
            <p><img src=""img/red_jar_piechart.png"" style=""width:30px; top:43px""/></p>
            </div>
            <div style=""width: 25px; float: right;"">
            <p><img src=""img/green_jar_piechart.png"" style=""width:30px; top:43px""/></p>
            </div>
            </div>

            ","true","img/agent_choices_piechart/55.png","img/agent_choices_piechart/55.png","img/bead_samples/0.6.png","html-slider-response","2614","56787","0.0-2614.0","R_3iwM92zaykHHi0f","",""
"651.5","50","

            <div style=""z-index: -1"">

            <img src=""img/bead_samples/0.7.png""
             style=""position:absolute;
             top:55%;
             left:25%;
             transform: translate(-50%, -50%);
             height:300px;
             width:auto;
             ""/>

            <img src='img/jar_covered_opened.png'
            style=""position:absolute;
            z-index: -1;
            top:50%;
            left:53%;
            height: 600px;
            margin-top:-430px;
            margin-left:-290px""/>

            <img src=""img/faces/6.png""
            style=""position:absolute;
             top:10%;
             left:85%;
             height:200px;
             width:auto;""/>

            <img src=""img/faces/7.png""
            style=""position:absolute;
             top:50%;
             left:85%;
             height:200px;
             width:auto;""/>

             <img src=""img/agent_choices_piechart/30.png""
            style=""position:absolute;
             top:27%;
             left:70%;
             height:30px;
             width:auto;""/>

             <img src=""img/agent_choices_piechart/50.png""
            style=""position:absolute;
             top:67%;
             left:70%;
             height:30px;
             width:auto;""/>
            </div>

            <div style=""width:200px;
            margin-bottom: 40px;
            margin-top: 50px;"">
            <p style=""top:40%;right:0%; position:relative;"">Choose your confidence for the jar which the beads are drawn from:</p>
            <div style=""width:10px; float: left;"">
            <p><img src=""img/red_jar_piechart.png"" style=""width:30px; top:43px""/></p>
            </div>
            <div style=""width: 25px; float: right;"">
            <p><img src=""img/green_jar_piechart.png"" style=""width:30px; top:43px""/></p>
            </div>
            </div>

            ","true","img/agent_choices_piechart/30.png","img/agent_choices_piechart/50.png","img/bead_samples/0.7.png","html-slider-response","2676","58052","0.0-2676.0","R_3iwM92zaykHHi0f","",""
"600.1999998092651","50","

            <div style=""z-index: -1"">

            <img src=""img/bead_samples/0.8.png""
             style=""position:absolute;
             top:55%;
             left:25%;
             transform: translate(-50%, -50%);
             height:300px;
             width:auto;
             ""/>

            <img src='img/jar_covered_opened.png'
            style=""position:absolute;
            z-index: -1;
            top:50%;
            left:53%;
            height: 600px;
            margin-top:-430px;
            margin-left:-290px""/>

            <img src=""img/faces/7.png""
            style=""position:absolute;
             top:10%;
             left:85%;
             height:200px;
             width:auto;""/>

            <img src=""img/faces/8.png""
            style=""position:absolute;
             top:50%;
             left:85%;
             height:200px;
             width:auto;""/>

             <img src=""img/agent_choices_piechart/35.png""
            style=""position:absolute;
             top:27%;
             left:70%;
             height:30px;
             width:auto;""/>

             <img src=""img/agent_choices_piechart/70.png""
            style=""position:absolute;
             top:67%;
             left:70%;
             height:30px;
             width:auto;""/>
            </div>

            <div style=""width:200px;
            margin-bottom: 40px;
            margin-top: 50px;"">
            <p style=""top:40%;right:0%; position:relative;"">Choose your confidence for the jar which the beads are drawn from:</p>
            <div style=""width:10px; float: left;"">
            <p><img src=""img/red_jar_piechart.png"" style=""width:30px; top:43px""/></p>
            </div>
            <div style=""width: 25px; float: right;"">
            <p><img src=""img/green_jar_piechart.png"" style=""width:30px; top:43px""/></p>
            </div>
            </div>

            ","true","img/agent_choices_piechart/35.png","img/agent_choices_piechart/70.png","img/bead_samples/0.8.png","html-slider-response","2738","59268","0.0-2738.0","R_3iwM92zaykHHi0f","",""
"613.2000000476837","50","

            <div style=""z-index: -1"">

            <img src=""img/bead_samples/0.3.png""
             style=""position:absolute;
             top:55%;
             left:25%;
             transform: translate(-50%, -50%);
             height:300px;
             width:auto;
             ""/>

            <img src='img/jar_covered_opened.png'
            style=""position:absolute;
            z-index: -1;
            top:50%;
            left:53%;
            height: 600px;
            margin-top:-430px;
            margin-left:-290px""/>

            <img src=""img/faces/8.png""
            style=""position:absolute;
             top:10%;
             left:85%;
             height:200px;
             width:auto;""/>

            <img src=""img/faces/9.png""
            style=""position:absolute;
             top:50%;
             left:85%;
             height:200px;
             width:auto;""/>

             <img src=""img/agent_choices_piechart/40.png""
            style=""position:absolute;
             top:27%;
             left:70%;
             height:30px;
             width:auto;""/>

             <img src=""img/agent_choices_piechart/95.png""
            style=""position:absolute;
             top:67%;
             left:70%;
             height:30px;
             width:auto;""/>
            </div>

            <div style=""width:200px;
            margin-bottom: 40px;
            margin-top: 50px;"">
            <p style=""top:40%;right:0%; position:relative;"">Choose your confidence for the jar which the beads are drawn from:</p>
            <div style=""width:10px; float: left;"">
            <p><img src=""img/red_jar_piechart.png"" style=""width:30px; top:43px""/></p>
            </div>
            <div style=""width: 25px; float: right;"">
            <p><img src=""img/green_jar_piechart.png"" style=""width:30px; top:43px""/></p>
            </div>
            </div>

            ","true","img/agent_choices_piechart/40.png","img/agent_choices_piechart/95.png","img/bead_samples/0.3.png","html-slider-response","2800","60488","0.0-2800.0","R_3iwM92zaykHHi0f","",""
"579.1000001430511","50","

            <div style=""z-index: -1"">

            <img src=""img/bead_samples/0.5.png""
             style=""position:absolute;
             top:55%;
             left:25%;
             transform: translate(-50%, -50%);
             height:300px;
             width:auto;
             ""/>

            <img src='img/jar_covered_opened.png'
            style=""position:absolute;
            z-index: -1;
            top:50%;
            left:53%;
            height: 600px;
            margin-top:-430px;
            margin-left:-290px""/>

            <img src=""img/faces/9.png""
            style=""position:absolute;
             top:10%;
             left:85%;
             height:200px;
             width:auto;""/>

            <img src=""img/faces/10.png""
            style=""position:absolute;
             top:50%;
             left:85%;
             height:200px;
             width:auto;""/>

             <img src=""img/agent_choices_piechart/70.png""
            style=""position:absolute;
             top:27%;
             left:70%;
             height:30px;
             width:auto;""/>

             <img src=""img/agent_choices_piechart/20.png""
            style=""position:absolute;
             top:67%;
             left:70%;
             height:30px;
             width:auto;""/>
            </div>

            <div style=""width:200px;
            margin-bottom: 40px;
            margin-top: 50px;"">
            <p style=""top:40%;right:0%; position:relative;"">Choose your confidence for the jar which the beads are drawn from:</p>
            <div style=""width:10px; float: left;"">
            <p><img src=""img/red_jar_piechart.png"" style=""width:30px; top:43px""/></p>
            </div>
            <div style=""width: 25px; float: right;"">
            <p><img src=""img/green_jar_piechart.png"" style=""width:30px; top:43px""/></p>
            </div>
            </div>

            ","true","img/agent_choices_piechart/70.png","img/agent_choices_piechart/20.png","img/bead_samples/0.5.png","html-slider-response","2862","61680","0.0-2862.0","R_3iwM92zaykHHi0f","",""
"395.40000009536743","50","

            <div style=""z-index: -1"">

            <img src=""img/bead_samples/0.3.png""
             style=""position:absolute;
             top:55%;
             left:25%;
             transform: translate(-50%, -50%);
             height:300px;
             width:auto;
             ""/>

            <img src='img/jar_covered_opened.png'
            style=""position:absolute;
            z-index: -1;
            top:50%;
            left:53%;
            height: 600px;
            margin-top:-430px;
            margin-left:-290px""/>

            <img src=""img/faces/10.png""
            style=""position:absolute;
             top:10%;
             left:85%;
             height:200px;
             width:auto;""/>

            <img src=""img/faces/11.png""
            style=""position:absolute;
             top:50%;
             left:85%;
             height:200px;
             width:auto;""/>

             <img src=""img/agent_choices_piechart/30.png""
            style=""position:absolute;
             top:27%;
             left:70%;
             height:30px;
             width:auto;""/>

             <img src=""img/agent_choices_piechart/40.png""
            style=""position:absolute;
             top:67%;
             left:70%;
             height:30px;
             width:auto;""/>
            </div>

            <div style=""width:200px;
            margin-bottom: 40px;
            margin-top: 50px;"">
            <p style=""top:40%;right:0%; position:relative;"">Choose your confidence for the jar which the beads are drawn from:</p>
            <div style=""width:10px; float: left;"">
            <p><img src=""img/red_jar_piechart.png"" style=""width:30px; top:43px""/></p>
            </div>
            <div style=""width: 25px; float: right;"">
            <p><img src=""img/green_jar_piechart.png"" style=""width:30px; top:43px""/></p>
            </div>
            </div>

            ","true","img/agent_choices_piechart/30.png","img/agent_choices_piechart/40.png","img/bead_samples/0.3.png","html-slider-response","2924","62690","0.0-2924.0","R_3iwM92zaykHHi0f","",""
"432.7000000476837","50","

            <div style=""z-index: -1"">

            <img src=""img/bead_samples/0.7.png""
             style=""position:absolute;
             top:55%;
             left:25%;
             transform: translate(-50%, -50%);
             height:300px;
             width:auto;
             ""/>

            <img src='img/jar_covered_opened.png'
            style=""position:absolute;
            z-index: -1;
            top:50%;
            left:53%;
            height: 600px;
            margin-top:-430px;
            margin-left:-290px""/>

            <img src=""img/faces/11.png""
            style=""position:absolute;
             top:10%;
             left:85%;
             height:200px;
             width:auto;""/>

            <img src=""img/faces/12.png""
            style=""position:absolute;
             top:50%;
             left:85%;
             height:200px;
             width:auto;""/>

             <img src=""img/agent_choices_piechart/30.png""
            style=""position:absolute;
             top:27%;
             left:70%;
             height:30px;
             width:auto;""/>

             <img src=""img/agent_choices_piechart/60.png""
            style=""position:absolute;
             top:67%;
             left:70%;
             height:30px;
             width:auto;""/>
            </div>

            <div style=""width:200px;
            margin-bottom: 40px;
            margin-top: 50px;"">
            <p style=""top:40%;right:0%; position:relative;"">Choose your confidence for the jar which the beads are drawn from:</p>
            <div style=""width:10px; float: left;"">
            <p><img src=""img/red_jar_piechart.png"" style=""width:30px; top:43px""/></p>
            </div>
            <div style=""width: 25px; float: right;"">
            <p><img src=""img/green_jar_piechart.png"" style=""width:30px; top:43px""/></p>
            </div>
            </div>

            ","true","img/agent_choices_piechart/30.png","img/agent_choices_piechart/60.png","img/bead_samples/0.7.png","html-slider-response","2986","63745","0.0-2986.0","R_3iwM92zaykHHi0f","",""
"531.5999999046326","50","

            <div style=""z-index: -1"">

            <img src=""img/bead_samples/0.1.png""
             style=""position:absolute;
             top:55%;
             left:25%;
             transform: translate(-50%, -50%);
             height:300px;
             width:auto;
             ""/>

            <img src='img/jar_covered_opened.png'
            style=""position:absolute;
            z-index: -1;
            top:50%;
            left:53%;
            height: 600px;
            margin-top:-430px;
            margin-left:-290px""/>

            <img src=""img/faces/12.png""
            style=""position:absolute;
             top:10%;
             left:85%;
             height:200px;
             width:auto;""/>

            <img src=""img/faces/13.png""
            style=""position:absolute;
             top:50%;
             left:85%;
             height:200px;
             width:auto;""/>

             <img src=""img/agent_choices_piechart/70.png""
            style=""position:absolute;
             top:27%;
             left:70%;
             height:30px;
             width:auto;""/>

             <img src=""img/agent_choices_piechart/50.png""
            style=""position:absolute;
             top:67%;
             left:70%;
             height:30px;
             width:auto;""/>
            </div>

            <div style=""width:200px;
            margin-bottom: 40px;
            margin-top: 50px;"">
            <p style=""top:40%;right:0%; position:relative;"">Choose your confidence for the jar which the beads are drawn from:</p>
            <div style=""width:10px; float: left;"">
            <p><img src=""img/red_jar_piechart.png"" style=""width:30px; top:43px""/></p>
            </div>
            <div style=""width: 25px; float: right;"">
            <p><img src=""img/green_jar_piechart.png"" style=""width:30px; top:43px""/></p>
            </div>
            </div>

            ","true","img/agent_choices_piechart/70.png","img/agent_choices_piechart/50.png","img/bead_samples/0.1.png","html-slider-response","3048","64904","0.0-3048.0","R_3iwM92zaykHHi0f","",""
"610.2000000476837","50","

            <div style=""z-index: -1"">

            <img src=""img/bead_samples/0.6.png""
             style=""position:absolute;
             top:55%;
             left:25%;
             transform: translate(-50%, -50%);
             height:300px;
             width:auto;
             ""/>

            <img src='img/jar_covered_opened.png'
            style=""position:absolute;
            z-index: -1;
            top:50%;
            left:53%;
            height: 600px;
            margin-top:-430px;
            margin-left:-290px""/>

            <img src=""img/faces/13.png""
            style=""position:absolute;
             top:10%;
             left:85%;
             height:200px;
             width:auto;""/>

            <img src=""img/faces/14.png""
            style=""position:absolute;
             top:50%;
             left:85%;
             height:200px;
             width:auto;""/>

             <img src=""img/agent_choices_piechart/15.png""
            style=""position:absolute;
             top:27%;
             left:70%;
             height:30px;
             width:auto;""/>

             <img src=""img/agent_choices_piechart/65.png""
            style=""position:absolute;
             top:67%;
             left:70%;
             height:30px;
             width:auto;""/>
            </div>

            <div style=""width:200px;
            margin-bottom: 40px;
            margin-top: 50px;"">
            <p style=""top:40%;right:0%; position:relative;"">Choose your confidence for the jar which the beads are drawn from:</p>
            <div style=""width:10px; float: left;"">
            <p><img src=""img/red_jar_piechart.png"" style=""width:30px; top:43px""/></p>
            </div>
            <div style=""width: 25px; float: right;"">
            <p><img src=""img/green_jar_piechart.png"" style=""width:30px; top:43px""/></p>
            </div>
            </div>

            ","true","img/agent_choices_piechart/15.png","img/agent_choices_piechart/65.png","img/bead_samples/0.6.png","html-slider-response","3110","66128","0.0-3110.0","R_3iwM92zaykHHi0f","",""
"2135.2000000476837","50","

            <div style=""z-index: -1"">

            <img src=""img/bead_samples/0.5.png""
             style=""position:absolute;
             top:55%;
             left:25%;
             transform: translate(-50%, -50%);
             height:300px;
             width:auto;
             ""/>

            <img src='img/jar_covered_opened.png'
            style=""position:absolute;
            z-index: -1;
            top:50%;
            left:53%;
            height: 600px;
            margin-top:-430px;
            margin-left:-290px""/>

            <img src=""img/faces/14.png""
            style=""position:absolute;
             top:10%;
             left:85%;
             height:200px;
             width:auto;""/>

            <img src=""img/faces/15.png""
            style=""position:absolute;
             top:50%;
             left:85%;
             height:200px;
             width:auto;""/>

             <img src=""img/agent_choices_piechart/55.png""
            style=""position:absolute;
             top:27%;
             left:70%;
             height:30px;
             width:auto;""/>

             <img src=""img/agent_choices_piechart/55.png""
            style=""position:absolute;
             top:67%;
             left:70%;
             height:30px;
             width:auto;""/>
            </div>

            <div style=""width:200px;
            margin-bottom: 40px;
            margin-top: 50px;"">
            <p style=""top:40%;right:0%; position:relative;"">Choose your confidence for the jar which the beads are drawn from:</p>
            <div style=""width:10px; float: left;"">
            <p><img src=""img/red_jar_piechart.png"" style=""width:30px; top:43px""/></p>
            </div>
            <div style=""width: 25px; float: right;"">
            <p><img src=""img/green_jar_piechart.png"" style=""width:30px; top:43px""/></p>
            </div>
            </div>

            ","true","img/agent_choices_piechart/55.png","img/agent_choices_piechart/55.png","img/bead_samples/0.5.png","html-slider-response","3172","68883","0.0-3172.0","R_3iwM92zaykHHi0f","",""
"717.8999998569489","50","

            <div style=""z-index: -1"">

            <img src=""img/bead_samples/0.4.png""
             style=""position:absolute;
             top:55%;
             left:25%;
             transform: translate(-50%, -50%);
             height:300px;
             width:auto;
             ""/>

            <img src='img/jar_covered_opened.png'
            style=""position:absolute;
            z-index: -1;
            top:50%;
            left:53%;
            height: 600px;
            margin-top:-430px;
            margin-left:-290px""/>

            <img src=""img/faces/15.png""
            style=""position:absolute;
             top:10%;
             left:85%;
             height:200px;
             width:auto;""/>

            <img src=""img/faces/16.png""
            style=""position:absolute;
             top:50%;
             left:85%;
             height:200px;
             width:auto;""/>

             <img src=""img/agent_choices_piechart/35.png""
            style=""position:absolute;
             top:27%;
             left:70%;
             height:30px;
             width:auto;""/>

             <img src=""img/agent_choices_piechart/30.png""
            style=""position:absolute;
             top:67%;
             left:70%;
             height:30px;
             width:auto;""/>
            </div>

            <div style=""width:200px;
            margin-bottom: 40px;
            margin-top: 50px;"">
            <p style=""top:40%;right:0%; position:relative;"">Choose your confidence for the jar which the beads are drawn from:</p>
            <div style=""width:10px; float: left;"">
            <p><img src=""img/red_jar_piechart.png"" style=""width:30px; top:43px""/></p>
            </div>
            <div style=""width: 25px; float: right;"">
            <p><img src=""img/green_jar_piechart.png"" style=""width:30px; top:43px""/></p>
            </div>
            </div>

            ","true","img/agent_choices_piechart/35.png","img/agent_choices_piechart/30.png","img/bead_samples/0.4.png","html-slider-response","3234","70204","0.0-3234.0","R_3iwM92zaykHHi0f","",""
"659.4000000953674","50","

            <div style=""z-index: -1"">

            <img src=""img/bead_samples/0.6.png""
             style=""position:absolute;
             top:55%;
             left:25%;
             transform: translate(-50%, -50%);
             height:300px;
             width:auto;
             ""/>

            <img src='img/jar_covered_opened.png'
            style=""position:absolute;
            z-index: -1;
            top:50%;
            left:53%;
            height: 600px;
            margin-top:-430px;
            margin-left:-290px""/>

            <img src=""img/faces/16.png""
            style=""position:absolute;
             top:10%;
             left:85%;
             height:200px;
             width:auto;""/>

            <img src=""img/faces/17.png""
            style=""position:absolute;
             top:50%;
             left:85%;
             height:200px;
             width:auto;""/>

             <img src=""img/agent_choices_piechart/60.png""
            style=""position:absolute;
             top:27%;
             left:70%;
             height:30px;
             width:auto;""/>

             <img src=""img/agent_choices_piechart/50.png""
            style=""position:absolute;
             top:67%;
             left:70%;
             height:30px;
             width:auto;""/>
            </div>

            <div style=""width:200px;
            margin-bottom: 40px;
            margin-top: 50px;"">
            <p style=""top:40%;right:0%; position:relative;"">Choose your confidence for the jar which the beads are drawn from:</p>
            <div style=""width:10px; float: left;"">
            <p><img src=""img/red_jar_piechart.png"" style=""width:30px; top:43px""/></p>
            </div>
            <div style=""width: 25px; float: right;"">
            <p><img src=""img/green_jar_piechart.png"" style=""width:30px; top:43px""/></p>
            </div>
            </div>

            ","true","img/agent_choices_piechart/60.png","img/agent_choices_piechart/50.png","img/bead_samples/0.6.png","html-slider-response","3296","71463","0.0-3296.0","R_3iwM92zaykHHi0f","",""
"696.5999999046326","50","

            <div style=""z-index: -1"">

            <img src=""img/bead_samples/0.6.png""
             style=""position:absolute;
             top:55%;
             left:25%;
             transform: translate(-50%, -50%);
             height:300px;
             width:auto;
             ""/>

            <img src='img/jar_covered_opened.png'
            style=""position:absolute;
            z-index: -1;
            top:50%;
            left:53%;
            height: 600px;
            margin-top:-430px;
            margin-left:-290px""/>

            <img src=""img/faces/17.png""
            style=""position:absolute;
             top:10%;
             left:85%;
             height:200px;
             width:auto;""/>

            <img src=""img/faces/18.png""
            style=""position:absolute;
             top:50%;
             left:85%;
             height:200px;
             width:auto;""/>

             <img src=""img/agent_choices_piechart/90.png""
            style=""position:absolute;
             top:27%;
             left:70%;
             height:30px;
             width:auto;""/>

             <img src=""img/agent_choices_piechart/45.png""
            style=""position:absolute;
             top:67%;
             left:70%;
             height:30px;
             width:auto;""/>
            </div>

            <div style=""width:200px;
            margin-bottom: 40px;
            margin-top: 50px;"">
            <p style=""top:40%;right:0%; position:relative;"">Choose your confidence for the jar which the beads are drawn from:</p>
            <div style=""width:10px; float: left;"">
            <p><img src=""img/red_jar_piechart.png"" style=""width:30px; top:43px""/></p>
            </div>
            <div style=""width: 25px; float: right;"">
            <p><img src=""img/green_jar_piechart.png"" style=""width:30px; top:43px""/></p>
            </div>
            </div>

            ","true","img/agent_choices_piechart/90.png","img/agent_choices_piechart/45.png","img/bead_samples/0.6.png","html-slider-response","3358","72766","0.0-3358.0","R_3iwM92zaykHHi0f","",""
"622.2000000476837","50","

            <div style=""z-index: -1"">

            <img src=""img/bead_samples/0.2.png""
             style=""position:absolute;
             top:55%;
             left:25%;
             transform: translate(-50%, -50%);
             height:300px;
             width:auto;
             ""/>

            <img src='img/jar_covered_opened.png'
            style=""position:absolute;
            z-index: -1;
            top:50%;
            left:53%;
            height: 600px;
            margin-top:-430px;
            margin-left:-290px""/>

            <img src=""img/faces/18.png""
            style=""position:absolute;
             top:10%;
             left:85%;
             height:200px;
             width:auto;""/>

            <img src=""img/faces/19.png""
            style=""position:absolute;
             top:50%;
             left:85%;
             height:200px;
             width:auto;""/>

             <img src=""img/agent_choices_piechart/90.png""
            style=""position:absolute;
             top:27%;
             left:70%;
             height:30px;
             width:auto;""/>

             <img src=""img/agent_choices_piechart/35.png""
            style=""position:absolute;
             top:67%;
             left:70%;
             height:30px;
             width:auto;""/>
            </div>

            <div style=""width:200px;
            margin-bottom: 40px;
            margin-top: 50px;"">
            <p style=""top:40%;right:0%; position:relative;"">Choose your confidence for the jar which the beads are drawn from:</p>
            <div style=""width:10px; float: left;"">
            <p><img src=""img/red_jar_piechart.png"" style=""width:30px; top:43px""/></p>
            </div>
            <div style=""width: 25px; float: right;"">
            <p><img src=""img/green_jar_piechart.png"" style=""width:30px; top:43px""/></p>
            </div>
            </div>

            ","true","img/agent_choices_piechart/90.png","img/agent_choices_piechart/35.png","img/bead_samples/0.2.png","html-slider-response","3420","73993","0.0-3420.0","R_3iwM92zaykHHi0f","",""
"622.1000001430511","50","

            <div style=""z-index: -1"">

            <img src=""img/bead_samples/0.2.png""
             style=""position:absolute;
             top:55%;
             left:25%;
             transform: translate(-50%, -50%);
             height:300px;
             width:auto;
             ""/>

            <img src='img/jar_covered_opened.png'
            style=""position:absolute;
            z-index: -1;
            top:50%;
            left:53%;
            height: 600px;
            margin-top:-430px;
            margin-left:-290px""/>

            <img src=""img/faces/19.png""
            style=""position:absolute;
             top:10%;
             left:85%;
             height:200px;
             width:auto;""/>

            <img src=""img/faces/20.png""
            style=""position:absolute;
             top:50%;
             left:85%;
             height:200px;
             width:auto;""/>

             <img src=""img/agent_choices_piechart/10.png""
            style=""position:absolute;
             top:27%;
             left:70%;
             height:30px;
             width:auto;""/>

             <img src=""img/agent_choices_piechart/80.png""
            style=""position:absolute;
             top:67%;
             left:70%;
             height:30px;
             width:auto;""/>
            </div>

            <div style=""width:200px;
            margin-bottom: 40px;
            margin-top: 50px;"">
            <p style=""top:40%;right:0%; position:relative;"">Choose your confidence for the jar which the beads are drawn from:</p>
            <div style=""width:10px; float: left;"">
            <p><img src=""img/red_jar_piechart.png"" style=""width:30px; top:43px""/></p>
            </div>
            <div style=""width: 25px; float: right;"">
            <p><img src=""img/green_jar_piechart.png"" style=""width:30px; top:43px""/></p>
            </div>
            </div>

            ","true","img/agent_choices_piechart/10.png","img/agent_choices_piechart/80.png","img/bead_samples/0.2.png","html-slider-response","3482","75222","0.0-3482.0","R_3iwM92zaykHHi0f","",""
"596.6999998092651","50","

            <div style=""z-index: -1"">

            <img src=""img/bead_samples/0.4.png""
             style=""position:absolute;
             top:55%;
             left:25%;
             transform: translate(-50%, -50%);
             height:300px;
             width:auto;
             ""/>

            <img src='img/jar_covered_opened.png'
            style=""position:absolute;
            z-index: -1;
            top:50%;
            left:53%;
            height: 600px;
            margin-top:-430px;
            margin-left:-290px""/>

            <img src=""img/faces/1.png""
            style=""position:absolute;
             top:10%;
             left:85%;
             height:200px;
             width:auto;""/>

            <img src=""img/faces/2.png""
            style=""position:absolute;
             top:50%;
             left:85%;
             height:200px;
             width:auto;""/>

             <img src=""img/agent_choices_piechart/70.png""
            style=""position:absolute;
             top:27%;
             left:70%;
             height:30px;
             width:auto;""/>

             <img src=""img/agent_choices_piechart/40.png""
            style=""position:absolute;
             top:67%;
             left:70%;
             height:30px;
             width:auto;""/>
            </div>

            <div style=""width:200px;
            margin-bottom: 40px;
            margin-top: 50px;"">
            <p style=""top:40%;right:0%; position:relative;"">Choose your confidence for the jar which the beads are drawn from:</p>
            <div style=""width:10px; float: left;"">
            <p><img src=""img/red_jar_piechart.png"" style=""width:30px; top:43px""/></p>
            </div>
            <div style=""width: 25px; float: right;"">
            <p><img src=""img/green_jar_piechart.png"" style=""width:30px; top:43px""/></p>
            </div>
            </div>

            ","true","img/agent_choices_piechart/70.png","img/agent_choices_piechart/40.png","img/bead_samples/0.4.png","html-slider-response","3544","76420","0.0-3544.0","R_3iwM92zaykHHi0f","",""
"2323.2999999523163","","

            <img src=""img/red_jar_piechart.png"" alt = ""6-4"" style=""left:46%; top:40% ;width:3%; position:absolute"">
            <img src=""img/green_jar_piechart.png"" alt=""4-6"" style=""left:51%; top:40% ;width:3%; position:absolute"">

            ","true","","","","html-button-response","3545","78748","0.0-3545.0","R_3iwM92zaykHHi0f","1","green"
"991.8999998569489","50","

            <div style=""z-index: -1"">

            <img src=""img/bead_samples/0.8.png""
             style=""position:absolute;
             top:55%;
             left:25%;
             transform: translate(-50%, -50%);
             height:300px;
             width:auto;
             ""/>

            <img src='img/jar_covered_opened.png'
            style=""position:absolute;
            z-index: -1;
            top:50%;
            left:53%;
            height: 600px;
            margin-top:-430px;
            margin-left:-290px""/>

            <img src=""img/faces/2.png""
            style=""position:absolute;
             top:10%;
             left:85%;
             height:200px;
             width:auto;""/>

            <img src=""img/faces/3.png""
            style=""position:absolute;
             top:50%;
             left:85%;
             height:200px;
             width:auto;""/>

             <img src=""img/agent_choices_piechart/55.png""
            style=""position:absolute;
             top:27%;
             left:70%;
             height:30px;
             width:auto;""/>

             <img src=""img/agent_choices_piechart/75.png""
            style=""position:absolute;
             top:67%;
             left:70%;
             height:30px;
             width:auto;""/>
            </div>

            <div style=""width:200px;
            margin-bottom: 40px;
            margin-top: 50px;"">
            <p style=""top:40%;right:0%; position:relative;"">Choose your confidence for the jar which the beads are drawn from:</p>
            <div style=""width:10px; float: left;"">
            <p><img src=""img/red_jar_piechart.png"" style=""width:30px; top:43px""/></p>
            </div>
            <div style=""width: 25px; float: right;"">
            <p><img src=""img/green_jar_piechart.png"" style=""width:30px; top:43px""/></p>
            </div>
            </div>

            ","true","img/agent_choices_piechart/55.png","img/agent_choices_piechart/75.png","img/bead_samples/0.8.png","html-slider-response","3607","80347","0.0-3607.0","R_3iwM92zaykHHi0f","",""
"478.7999999523163","50","

            <div style=""z-index: -1"">

            <img src=""img/bead_samples/0.7.png""
             style=""position:absolute;
             top:55%;
             left:25%;
             transform: translate(-50%, -50%);
             height:300px;
             width:auto;
             ""/>

            <img src='img/jar_covered_opened.png'
            style=""position:absolute;
            z-index: -1;
            top:50%;
            left:53%;
            height: 600px;
            margin-top:-430px;
            margin-left:-290px""/>

            <img src=""img/faces/3.png""
            style=""position:absolute;
             top:10%;
             left:85%;
             height:200px;
             width:auto;""/>

            <img src=""img/faces/4.png""
            style=""position:absolute;
             top:50%;
             left:85%;
             height:200px;
             width:auto;""/>

             <img src=""img/agent_choices_piechart/55.png""
            style=""position:absolute;
             top:27%;
             left:70%;
             height:30px;
             width:auto;""/>

             <img src=""img/agent_choices_piechart/55.png""
            style=""position:absolute;
             top:67%;
             left:70%;
             height:30px;
             width:auto;""/>
            </div>

            <div style=""width:200px;
            margin-bottom: 40px;
            margin-top: 50px;"">
            <p style=""top:40%;right:0%; position:relative;"">Choose your confidence for the jar which the beads are drawn from:</p>
            <div style=""width:10px; float: left;"">
            <p><img src=""img/red_jar_piechart.png"" style=""width:30px; top:43px""/></p>
            </div>
            <div style=""width: 25px; float: right;"">
            <p><img src=""img/green_jar_piechart.png"" style=""width:30px; top:43px""/></p>
            </div>
            </div>

            ","true","img/agent_choices_piechart/55.png","img/agent_choices_piechart/55.png","img/bead_samples/0.7.png","html-slider-response","3669","81456","0.0-3669.0","R_3iwM92zaykHHi0f","",""
"494.2000000476837","50","

            <div style=""z-index: -1"">

            <img src=""img/bead_samples/0.3.png""
             style=""position:absolute;
             top:55%;
             left:25%;
             transform: translate(-50%, -50%);
             height:300px;
             width:auto;
             ""/>

            <img src='img/jar_covered_opened.png'
            style=""position:absolute;
            z-index: -1;
            top:50%;
            left:53%;
            height: 600px;
            margin-top:-430px;
            margin-left:-290px""/>

            <img src=""img/faces/4.png""
            style=""position:absolute;
             top:10%;
             left:85%;
             height:200px;
             width:auto;""/>

            <img src=""img/faces/5.png""
            style=""position:absolute;
             top:50%;
             left:85%;
             height:200px;
             width:auto;""/>

             <img src=""img/agent_choices_piechart/45.png""
            style=""position:absolute;
             top:27%;
             left:70%;
             height:30px;
             width:auto;""/>

             <img src=""img/agent_choices_piechart/65.png""
            style=""position:absolute;
             top:67%;
             left:70%;
             height:30px;
             width:auto;""/>
            </div>

            <div style=""width:200px;
            margin-bottom: 40px;
            margin-top: 50px;"">
            <p style=""top:40%;right:0%; position:relative;"">Choose your confidence for the jar which the beads are drawn from:</p>
            <div style=""width:10px; float: left;"">
            <p><img src=""img/red_jar_piechart.png"" style=""width:30px; top:43px""/></p>
            </div>
            <div style=""width: 25px; float: right;"">
            <p><img src=""img/green_jar_piechart.png"" style=""width:30px; top:43px""/></p>
            </div>
            </div>

            ","true","img/agent_choices_piechart/45.png","img/agent_choices_piechart/65.png","img/bead_samples/0.3.png","html-slider-response","3731","82549","0.0-3731.0","R_3iwM92zaykHHi0f","",""
"505.40000009536743","50","

            <div style=""z-index: -1"">

            <img src=""img/bead_samples/0.4.png""
             style=""position:absolute;
             top:55%;
             left:25%;
             transform: translate(-50%, -50%);
             height:300px;
             width:auto;
             ""/>

            <img src='img/jar_covered_opened.png'
            style=""position:absolute;
            z-index: -1;
            top:50%;
            left:53%;
            height: 600px;
            margin-top:-430px;
            margin-left:-290px""/>

            <img src=""img/faces/5.png""
            style=""position:absolute;
             top:10%;
             left:85%;
             height:200px;
             width:auto;""/>

            <img src=""img/faces/6.png""
            style=""position:absolute;
             top:50%;
             left:85%;
             height:200px;
             width:auto;""/>

             <img src=""img/agent_choices_piechart/30.png""
            style=""position:absolute;
             top:27%;
             left:70%;
             height:30px;
             width:auto;""/>

             <img src=""img/agent_choices_piechart/50.png""
            style=""position:absolute;
             top:67%;
             left:70%;
             height:30px;
             width:auto;""/>
            </div>

            <div style=""width:200px;
            margin-bottom: 40px;
            margin-top: 50px;"">
            <p style=""top:40%;right:0%; position:relative;"">Choose your confidence for the jar which the beads are drawn from:</p>
            <div style=""width:10px; float: left;"">
            <p><img src=""img/red_jar_piechart.png"" style=""width:30px; top:43px""/></p>
            </div>
            <div style=""width: 25px; float: right;"">
            <p><img src=""img/green_jar_piechart.png"" style=""width:30px; top:43px""/></p>
            </div>
            </div>

            ","true","img/agent_choices_piechart/30.png","img/agent_choices_piechart/50.png","img/bead_samples/0.4.png","html-slider-response","3793","83657","0.0-3793.0","R_3iwM92zaykHHi0f","",""
"323.7000000476837","50","

            <div style=""z-index: -1"">

            <img src=""img/bead_samples/0.7.png""
             style=""position:absolute;
             top:55%;
             left:25%;
             transform: translate(-50%, -50%);
             height:300px;
             width:auto;
             ""/>

            <img src='img/jar_covered_opened.png'
            style=""position:absolute;
            z-index: -1;
            top:50%;
            left:53%;
            height: 600px;
            margin-top:-430px;
            margin-left:-290px""/>

            <img src=""img/faces/6.png""
            style=""position:absolute;
             top:10%;
             left:85%;
             height:200px;
             width:auto;""/>

            <img src=""img/faces/7.png""
            style=""position:absolute;
             top:50%;
             left:85%;
             height:200px;
             width:auto;""/>

             <img src=""img/agent_choices_piechart/55.png""
            style=""position:absolute;
             top:27%;
             left:70%;
             height:30px;
             width:auto;""/>

             <img src=""img/agent_choices_piechart/65.png""
            style=""position:absolute;
             top:67%;
             left:70%;
             height:30px;
             width:auto;""/>
            </div>

            <div style=""width:200px;
            margin-bottom: 40px;
            margin-top: 50px;"">
            <p style=""top:40%;right:0%; position:relative;"">Choose your confidence for the jar which the beads are drawn from:</p>
            <div style=""width:10px; float: left;"">
            <p><img src=""img/red_jar_piechart.png"" style=""width:30px; top:43px""/></p>
            </div>
            <div style=""width: 25px; float: right;"">
            <p><img src=""img/green_jar_piechart.png"" style=""width:30px; top:43px""/></p>
            </div>
            </div>

            ","true","img/agent_choices_piechart/55.png","img/agent_choices_piechart/65.png","img/bead_samples/0.7.png","html-slider-response","3855","84614","0.0-3855.0","R_3iwM92zaykHHi0f","",""
"556.3000001907349","50","

            <div style=""z-index: -1"">

            <img src=""img/bead_samples/0.8.png""
             style=""position:absolute;
             top:55%;
             left:25%;
             transform: translate(-50%, -50%);
             height:300px;
             width:auto;
             ""/>

            <img src='img/jar_covered_opened.png'
            style=""position:absolute;
            z-index: -1;
            top:50%;
            left:53%;
            height: 600px;
            margin-top:-430px;
            margin-left:-290px""/>

            <img src=""img/faces/7.png""
            style=""position:absolute;
             top:10%;
             left:85%;
             height:200px;
             width:auto;""/>

            <img src=""img/faces/8.png""
            style=""position:absolute;
             top:50%;
             left:85%;
             height:200px;
             width:auto;""/>

             <img src=""img/agent_choices_piechart/35.png""
            style=""position:absolute;
             top:27%;
             left:70%;
             height:30px;
             width:auto;""/>

             <img src=""img/agent_choices_piechart/30.png""
            style=""position:absolute;
             top:67%;
             left:70%;
             height:30px;
             width:auto;""/>
            </div>

            <div style=""width:200px;
            margin-bottom: 40px;
            margin-top: 50px;"">
            <p style=""top:40%;right:0%; position:relative;"">Choose your confidence for the jar which the beads are drawn from:</p>
            <div style=""width:10px; float: left;"">
            <p><img src=""img/red_jar_piechart.png"" style=""width:30px; top:43px""/></p>
            </div>
            <div style=""width: 25px; float: right;"">
            <p><img src=""img/green_jar_piechart.png"" style=""width:30px; top:43px""/></p>
            </div>
            </div>

            ","true","img/agent_choices_piechart/35.png","img/agent_choices_piechart/30.png","img/bead_samples/0.8.png","html-slider-response","3917","85772","0.0-3917.0","R_3iwM92zaykHHi0f","",""
"483.2999999523163","50","

            <div style=""z-index: -1"">

            <img src=""img/bead_samples/0.6.png""
             style=""position:absolute;
             top:55%;
             left:25%;
             transform: translate(-50%, -50%);
             height:300px;
             width:auto;
             ""/>

            <img src='img/jar_covered_opened.png'
            style=""position:absolute;
            z-index: -1;
            top:50%;
            left:53%;
            height: 600px;
            margin-top:-430px;
            margin-left:-290px""/>

            <img src=""img/faces/8.png""
            style=""position:absolute;
             top:10%;
             left:85%;
             height:200px;
             width:auto;""/>

            <img src=""img/faces/9.png""
            style=""position:absolute;
             top:50%;
             left:85%;
             height:200px;
             width:auto;""/>

             <img src=""img/agent_choices_piechart/40.png""
            style=""position:absolute;
             top:27%;
             left:70%;
             height:30px;
             width:auto;""/>

             <img src=""img/agent_choices_piechart/60.png""
            style=""position:absolute;
             top:67%;
             left:70%;
             height:30px;
             width:auto;""/>
            </div>

            <div style=""width:200px;
            margin-bottom: 40px;
            margin-top: 50px;"">
            <p style=""top:40%;right:0%; position:relative;"">Choose your confidence for the jar which the beads are drawn from:</p>
            <div style=""width:10px; float: left;"">
            <p><img src=""img/red_jar_piechart.png"" style=""width:30px; top:43px""/></p>
            </div>
            <div style=""width: 25px; float: right;"">
            <p><img src=""img/green_jar_piechart.png"" style=""width:30px; top:43px""/></p>
            </div>
            </div>

            ","true","img/agent_choices_piechart/40.png","img/agent_choices_piechart/60.png","img/bead_samples/0.6.png","html-slider-response","3979","86882","0.0-3979.0","R_3iwM92zaykHHi0f","",""
"503.59999990463257","50","

            <div style=""z-index: -1"">

            <img src=""img/bead_samples/0.4.png""
             style=""position:absolute;
             top:55%;
             left:25%;
             transform: translate(-50%, -50%);
             height:300px;
             width:auto;
             ""/>

            <img src='img/jar_covered_opened.png'
            style=""position:absolute;
            z-index: -1;
            top:50%;
            left:53%;
            height: 600px;
            margin-top:-430px;
            margin-left:-290px""/>

            <img src=""img/faces/9.png""
            style=""position:absolute;
             top:10%;
             left:85%;
             height:200px;
             width:auto;""/>

            <img src=""img/faces/10.png""
            style=""position:absolute;
             top:50%;
             left:85%;
             height:200px;
             width:auto;""/>

             <img src=""img/agent_choices_piechart/10.png""
            style=""position:absolute;
             top:27%;
             left:70%;
             height:30px;
             width:auto;""/>

             <img src=""img/agent_choices_piechart/65.png""
            style=""position:absolute;
             top:67%;
             left:70%;
             height:30px;
             width:auto;""/>
            </div>

            <div style=""width:200px;
            margin-bottom: 40px;
            margin-top: 50px;"">
            <p style=""top:40%;right:0%; position:relative;"">Choose your confidence for the jar which the beads are drawn from:</p>
            <div style=""width:10px; float: left;"">
            <p><img src=""img/red_jar_piechart.png"" style=""width:30px; top:43px""/></p>
            </div>
            <div style=""width: 25px; float: right;"">
            <p><img src=""img/green_jar_piechart.png"" style=""width:30px; top:43px""/></p>
            </div>
            </div>

            ","true","img/agent_choices_piechart/10.png","img/agent_choices_piechart/65.png","img/bead_samples/0.4.png","html-slider-response","4041","87988","0.0-4041.0","R_3iwM92zaykHHi0f","",""
"586.7999999523163","50","

            <div style=""z-index: -1"">

            <img src=""img/bead_samples/0.7.png""
             style=""position:absolute;
             top:55%;
             left:25%;
             transform: translate(-50%, -50%);
             height:300px;
             width:auto;
             ""/>

            <img src='img/jar_covered_opened.png'
            style=""position:absolute;
            z-index: -1;
            top:50%;
            left:53%;
            height: 600px;
            margin-top:-430px;
            margin-left:-290px""/>

            <img src=""img/faces/10.png""
            style=""position:absolute;
             top:10%;
             left:85%;
             height:200px;
             width:auto;""/>

            <img src=""img/faces/11.png""
            style=""position:absolute;
             top:50%;
             left:85%;
             height:200px;
             width:auto;""/>

             <img src=""img/agent_choices_piechart/60.png""
            style=""position:absolute;
             top:27%;
             left:70%;
             height:30px;
             width:auto;""/>

             <img src=""img/agent_choices_piechart/75.png""
            style=""position:absolute;
             top:67%;
             left:70%;
             height:30px;
             width:auto;""/>
            </div>

            <div style=""width:200px;
            margin-bottom: 40px;
            margin-top: 50px;"">
            <p style=""top:40%;right:0%; position:relative;"">Choose your confidence for the jar which the beads are drawn from:</p>
            <div style=""width:10px; float: left;"">
            <p><img src=""img/red_jar_piechart.png"" style=""width:30px; top:43px""/></p>
            </div>
            <div style=""width: 25px; float: right;"">
            <p><img src=""img/green_jar_piechart.png"" style=""width:30px; top:43px""/></p>
            </div>
            </div>

            ","true","img/agent_choices_piechart/60.png","img/agent_choices_piechart/75.png","img/bead_samples/0.7.png","html-slider-response","4103","89173","0.0-4103.0","R_3iwM92zaykHHi0f","",""
"449.90000009536743","50","

            <div style=""z-index: -1"">

            <img src=""img/bead_samples/0.8.png""
             style=""position:absolute;
             top:55%;
             left:25%;
             transform: translate(-50%, -50%);
             height:300px;
             width:auto;
             ""/>

            <img src='img/jar_covered_opened.png'
            style=""position:absolute;
            z-index: -1;
            top:50%;
            left:53%;
            height: 600px;
            margin-top:-430px;
            margin-left:-290px""/>

            <img src=""img/faces/11.png""
            style=""position:absolute;
             top:10%;
             left:85%;
             height:200px;
             width:auto;""/>

            <img src=""img/faces/12.png""
            style=""position:absolute;
             top:50%;
             left:85%;
             height:200px;
             width:auto;""/>

             <img src=""img/agent_choices_piechart/35.png""
            style=""position:absolute;
             top:27%;
             left:70%;
             height:30px;
             width:auto;""/>

             <img src=""img/agent_choices_piechart/75.png""
            style=""position:absolute;
             top:67%;
             left:70%;
             height:30px;
             width:auto;""/>
            </div>

            <div style=""width:200px;
            margin-bottom: 40px;
            margin-top: 50px;"">
            <p style=""top:40%;right:0%; position:relative;"">Choose your confidence for the jar which the beads are drawn from:</p>
            <div style=""width:10px; float: left;"">
            <p><img src=""img/red_jar_piechart.png"" style=""width:30px; top:43px""/></p>
            </div>
            <div style=""width: 25px; float: right;"">
            <p><img src=""img/green_jar_piechart.png"" style=""width:30px; top:43px""/></p>
            </div>
            </div>

            ","true","img/agent_choices_piechart/35.png","img/agent_choices_piechart/75.png","img/bead_samples/0.8.png","html-slider-response","4165","90236","0.0-4165.0","R_3iwM92zaykHHi0f","",""
"512.2000000476837","50","

            <div style=""z-index: -1"">

            <img src=""img/bead_samples/0.3.png""
             style=""position:absolute;
             top:55%;
             left:25%;
             transform: translate(-50%, -50%);
             height:300px;
             width:auto;
             ""/>

            <img src='img/jar_covered_opened.png'
            style=""position:absolute;
            z-index: -1;
            top:50%;
            left:53%;
            height: 600px;
            margin-top:-430px;
            margin-left:-290px""/>

            <img src=""img/faces/12.png""
            style=""position:absolute;
             top:10%;
             left:85%;
             height:200px;
             width:auto;""/>

            <img src=""img/faces/13.png""
            style=""position:absolute;
             top:50%;
             left:85%;
             height:200px;
             width:auto;""/>

             <img src=""img/agent_choices_piechart/40.png""
            style=""position:absolute;
             top:27%;
             left:70%;
             height:30px;
             width:auto;""/>

             <img src=""img/agent_choices_piechart/40.png""
            style=""position:absolute;
             top:67%;
             left:70%;
             height:30px;
             width:auto;""/>
            </div>

            <div style=""width:200px;
            margin-bottom: 40px;
            margin-top: 50px;"">
            <p style=""top:40%;right:0%; position:relative;"">Choose your confidence for the jar which the beads are drawn from:</p>
            <div style=""width:10px; float: left;"">
            <p><img src=""img/red_jar_piechart.png"" style=""width:30px; top:43px""/></p>
            </div>
            <div style=""width: 25px; float: right;"">
            <p><img src=""img/green_jar_piechart.png"" style=""width:30px; top:43px""/></p>
            </div>
            </div>

            ","true","img/agent_choices_piechart/40.png","img/agent_choices_piechart/40.png","img/bead_samples/0.3.png","html-slider-response","4227","91356","0.0-4227.0","R_3iwM92zaykHHi0f","",""
"529.2999999523163","50","

            <div style=""z-index: -1"">

            <img src=""img/bead_samples/0.4.png""
             style=""position:absolute;
             top:55%;
             left:25%;
             transform: translate(-50%, -50%);
             height:300px;
             width:auto;
             ""/>

            <img src='img/jar_covered_opened.png'
            style=""position:absolute;
            z-index: -1;
            top:50%;
            left:53%;
            height: 600px;
            margin-top:-430px;
            margin-left:-290px""/>

            <img src=""img/faces/13.png""
            style=""position:absolute;
             top:10%;
             left:85%;
             height:200px;
             width:auto;""/>

            <img src=""img/faces/14.png""
            style=""position:absolute;
             top:50%;
             left:85%;
             height:200px;
             width:auto;""/>

             <img src=""img/agent_choices_piechart/40.png""
            style=""position:absolute;
             top:27%;
             left:70%;
             height:30px;
             width:auto;""/>

             <img src=""img/agent_choices_piechart/60.png""
            style=""position:absolute;
             top:67%;
             left:70%;
             height:30px;
             width:auto;""/>
            </div>

            <div style=""width:200px;
            margin-bottom: 40px;
            margin-top: 50px;"">
            <p style=""top:40%;right:0%; position:relative;"">Choose your confidence for the jar which the beads are drawn from:</p>
            <div style=""width:10px; float: left;"">
            <p><img src=""img/red_jar_piechart.png"" style=""width:30px; top:43px""/></p>
            </div>
            <div style=""width: 25px; float: right;"">
            <p><img src=""img/green_jar_piechart.png"" style=""width:30px; top:43px""/></p>
            </div>
            </div>

            ","true","img/agent_choices_piechart/40.png","img/agent_choices_piechart/60.png","img/bead_samples/0.4.png","html-slider-response","4289","92495","0.0-4289.0","R_3iwM92zaykHHi0f","",""
"481.7999999523163","50","

            <div style=""z-index: -1"">

            <img src=""img/bead_samples/0.4.png""
             style=""position:absolute;
             top:55%;
             left:25%;
             transform: translate(-50%, -50%);
             height:300px;
             width:auto;
             ""/>

            <img src='img/jar_covered_opened.png'
            style=""position:absolute;
            z-index: -1;
            top:50%;
            left:53%;
            height: 600px;
            margin-top:-430px;
            margin-left:-290px""/>

            <img src=""img/faces/14.png""
            style=""position:absolute;
             top:10%;
             left:85%;
             height:200px;
             width:auto;""/>

            <img src=""img/faces/15.png""
            style=""position:absolute;
             top:50%;
             left:85%;
             height:200px;
             width:auto;""/>

             <img src=""img/agent_choices_piechart/65.png""
            style=""position:absolute;
             top:27%;
             left:70%;
             height:30px;
             width:auto;""/>

             <img src=""img/agent_choices_piechart/55.png""
            style=""position:absolute;
             top:67%;
             left:70%;
             height:30px;
             width:auto;""/>
            </div>

            <div style=""width:200px;
            margin-bottom: 40px;
            margin-top: 50px;"">
            <p style=""top:40%;right:0%; position:relative;"">Choose your confidence for the jar which the beads are drawn from:</p>
            <div style=""width:10px; float: left;"">
            <p><img src=""img/red_jar_piechart.png"" style=""width:30px; top:43px""/></p>
            </div>
            <div style=""width: 25px; float: right;"">
            <p><img src=""img/green_jar_piechart.png"" style=""width:30px; top:43px""/></p>
            </div>
            </div>

            ","true","img/agent_choices_piechart/65.png","img/agent_choices_piechart/55.png","img/bead_samples/0.4.png","html-slider-response","4351","93585","0.0-4351.0","R_3iwM92zaykHHi0f","",""
"563.4000000953674","50","

            <div style=""z-index: -1"">

            <img src=""img/bead_samples/0.6.png""
             style=""position:absolute;
             top:55%;
             left:25%;
             transform: translate(-50%, -50%);
             height:300px;
             width:auto;
             ""/>

            <img src='img/jar_covered_opened.png'
            style=""position:absolute;
            z-index: -1;
            top:50%;
            left:53%;
            height: 600px;
            margin-top:-430px;
            margin-left:-290px""/>

            <img src=""img/faces/15.png""
            style=""position:absolute;
             top:10%;
             left:85%;
             height:200px;
             width:auto;""/>

            <img src=""img/faces/16.png""
            style=""position:absolute;
             top:50%;
             left:85%;
             height:200px;
             width:auto;""/>

             <img src=""img/agent_choices_piechart/30.png""
            style=""position:absolute;
             top:27%;
             left:70%;
             height:30px;
             width:auto;""/>

             <img src=""img/agent_choices_piechart/40.png""
            style=""position:absolute;
             top:67%;
             left:70%;
             height:30px;
             width:auto;""/>
            </div>

            <div style=""width:200px;
            margin-bottom: 40px;
            margin-top: 50px;"">
            <p style=""top:40%;right:0%; position:relative;"">Choose your confidence for the jar which the beads are drawn from:</p>
            <div style=""width:10px; float: left;"">
            <p><img src=""img/red_jar_piechart.png"" style=""width:30px; top:43px""/></p>
            </div>
            <div style=""width: 25px; float: right;"">
            <p><img src=""img/green_jar_piechart.png"" style=""width:30px; top:43px""/></p>
            </div>
            </div>

            ","true","img/agent_choices_piechart/30.png","img/agent_choices_piechart/40.png","img/bead_samples/0.6.png","html-slider-response","4413","94751","0.0-4413.0","R_3iwM92zaykHHi0f","",""
"538.7000000476837","50","

            <div style=""z-index: -1"">

            <img src=""img/bead_samples/0.6.png""
             style=""position:absolute;
             top:55%;
             left:25%;
             transform: translate(-50%, -50%);
             height:300px;
             width:auto;
             ""/>

            <img src='img/jar_covered_opened.png'
            style=""position:absolute;
            z-index: -1;
            top:50%;
            left:53%;
            height: 600px;
            margin-top:-430px;
            margin-left:-290px""/>

            <img src=""img/faces/16.png""
            style=""position:absolute;
             top:10%;
             left:85%;
             height:200px;
             width:auto;""/>

            <img src=""img/faces/17.png""
            style=""position:absolute;
             top:50%;
             left:85%;
             height:200px;
             width:auto;""/>

             <img src=""img/agent_choices_piechart/55.png""
            style=""position:absolute;
             top:27%;
             left:70%;
             height:30px;
             width:auto;""/>

             <img src=""img/agent_choices_piechart/55.png""
            style=""position:absolute;
             top:67%;
             left:70%;
             height:30px;
             width:auto;""/>
            </div>

            <div style=""width:200px;
            margin-bottom: 40px;
            margin-top: 50px;"">
            <p style=""top:40%;right:0%; position:relative;"">Choose your confidence for the jar which the beads are drawn from:</p>
            <div style=""width:10px; float: left;"">
            <p><img src=""img/red_jar_piechart.png"" style=""width:30px; top:43px""/></p>
            </div>
            <div style=""width: 25px; float: right;"">
            <p><img src=""img/green_jar_piechart.png"" style=""width:30px; top:43px""/></p>
            </div>
            </div>

            ","true","img/agent_choices_piechart/55.png","img/agent_choices_piechart/55.png","img/bead_samples/0.6.png","html-slider-response","4475","95888","0.0-4475.0","R_3iwM92zaykHHi0f","",""
"608.7999999523163","50","

            <div style=""z-index: -1"">

            <img src=""img/bead_samples/0.6.png""
             style=""position:absolute;
             top:55%;
             left:25%;
             transform: translate(-50%, -50%);
             height:300px;
             width:auto;
             ""/>

            <img src='img/jar_covered_opened.png'
            style=""position:absolute;
            z-index: -1;
            top:50%;
            left:53%;
            height: 600px;
            margin-top:-430px;
            margin-left:-290px""/>

            <img src=""img/faces/17.png""
            style=""position:absolute;
             top:10%;
             left:85%;
             height:200px;
             width:auto;""/>

            <img src=""img/faces/18.png""
            style=""position:absolute;
             top:50%;
             left:85%;
             height:200px;
             width:auto;""/>

             <img src=""img/agent_choices_piechart/75.png""
            style=""position:absolute;
             top:27%;
             left:70%;
             height:30px;
             width:auto;""/>

             <img src=""img/agent_choices_piechart/55.png""
            style=""position:absolute;
             top:67%;
             left:70%;
             height:30px;
             width:auto;""/>
            </div>

            <div style=""width:200px;
            margin-bottom: 40px;
            margin-top: 50px;"">
            <p style=""top:40%;right:0%; position:relative;"">Choose your confidence for the jar which the beads are drawn from:</p>
            <div style=""width:10px; float: left;"">
            <p><img src=""img/red_jar_piechart.png"" style=""width:30px; top:43px""/></p>
            </div>
            <div style=""width: 25px; float: right;"">
            <p><img src=""img/green_jar_piechart.png"" style=""width:30px; top:43px""/></p>
            </div>
            </div>

            ","true","img/agent_choices_piechart/75.png","img/agent_choices_piechart/55.png","img/bead_samples/0.6.png","html-slider-response","4537","97104","0.0-4537.0","R_3iwM92zaykHHi0f","",""
"547.2000000476837","50","

            <div style=""z-index: -1"">

            <img src=""img/bead_samples/0.2.png""
             style=""position:absolute;
             top:55%;
             left:25%;
             transform: translate(-50%, -50%);
             height:300px;
             width:auto;
             ""/>

            <img src='img/jar_covered_opened.png'
            style=""position:absolute;
            z-index: -1;
            top:50%;
            left:53%;
            height: 600px;
            margin-top:-430px;
            margin-left:-290px""/>

            <img src=""img/faces/18.png""
            style=""position:absolute;
             top:10%;
             left:85%;
             height:200px;
             width:auto;""/>

            <img src=""img/faces/19.png""
            style=""position:absolute;
             top:50%;
             left:85%;
             height:200px;
             width:auto;""/>

             <img src=""img/agent_choices_piechart/55.png""
            style=""position:absolute;
             top:27%;
             left:70%;
             height:30px;
             width:auto;""/>

             <img src=""img/agent_choices_piechart/15.png""
            style=""position:absolute;
             top:67%;
             left:70%;
             height:30px;
             width:auto;""/>
            </div>

            <div style=""width:200px;
            margin-bottom: 40px;
            margin-top: 50px;"">
            <p style=""top:40%;right:0%; position:relative;"">Choose your confidence for the jar which the beads are drawn from:</p>
            <div style=""width:10px; float: left;"">
            <p><img src=""img/red_jar_piechart.png"" style=""width:30px; top:43px""/></p>
            </div>
            <div style=""width: 25px; float: right;"">
            <p><img src=""img/green_jar_piechart.png"" style=""width:30px; top:43px""/></p>
            </div>
            </div>

            ","true","img/agent_choices_piechart/55.png","img/agent_choices_piechart/15.png","img/bead_samples/0.2.png","html-slider-response","4599","98270","0.0-4599.0","R_3iwM92zaykHHi0f","",""
"493.69999980926514","50","

            <div style=""z-index: -1"">

            <img src=""img/bead_samples/0.9.png""
             style=""position:absolute;
             top:55%;
             left:25%;
             transform: translate(-50%, -50%);
             height:300px;
             width:auto;
             ""/>

            <img src='img/jar_covered_opened.png'
            style=""position:absolute;
            z-index: -1;
            top:50%;
            left:53%;
            height: 600px;
            margin-top:-430px;
            margin-left:-290px""/>

            <img src=""img/faces/19.png""
            style=""position:absolute;
             top:10%;
             left:85%;
             height:200px;
             width:auto;""/>

            <img src=""img/faces/20.png""
            style=""position:absolute;
             top:50%;
             left:85%;
             height:200px;
             width:auto;""/>

             <img src=""img/agent_choices_piechart/80.png""
            style=""position:absolute;
             top:27%;
             left:70%;
             height:30px;
             width:auto;""/>

             <img src=""img/agent_choices_piechart/30.png""
            style=""position:absolute;
             top:67%;
             left:70%;
             height:30px;
             width:auto;""/>
            </div>

            <div style=""width:200px;
            margin-bottom: 40px;
            margin-top: 50px;"">
            <p style=""top:40%;right:0%; position:relative;"">Choose your confidence for the jar which the beads are drawn from:</p>
            <div style=""width:10px; float: left;"">
            <p><img src=""img/red_jar_piechart.png"" style=""width:30px; top:43px""/></p>
            </div>
            <div style=""width: 25px; float: right;"">
            <p><img src=""img/green_jar_piechart.png"" style=""width:30px; top:43px""/></p>
            </div>
            </div>

            ","true","img/agent_choices_piechart/80.png","img/agent_choices_piechart/30.png","img/bead_samples/0.9.png","html-slider-response","4661","99376","0.0-4661.0","R_3iwM92zaykHHi0f","",""
"540.9000000953674","50","

            <div style=""z-index: -1"">

            <img src=""img/bead_samples/0.4.png""
             style=""position:absolute;
             top:55%;
             left:25%;
             transform: translate(-50%, -50%);
             height:300px;
             width:auto;
             ""/>

            <img src='img/jar_covered_opened.png'
            style=""position:absolute;
            z-index: -1;
            top:50%;
            left:53%;
            height: 600px;
            margin-top:-430px;
            margin-left:-290px""/>

            <img src=""img/faces/1.png""
            style=""position:absolute;
             top:10%;
             left:85%;
             height:200px;
             width:auto;""/>

            <img src=""img/faces/2.png""
            style=""position:absolute;
             top:50%;
             left:85%;
             height:200px;
             width:auto;""/>

             <img src=""img/agent_choices_piechart/55.png""
            style=""position:absolute;
             top:27%;
             left:70%;
             height:30px;
             width:auto;""/>

             <img src=""img/agent_choices_piechart/65.png""
            style=""position:absolute;
             top:67%;
             left:70%;
             height:30px;
             width:auto;""/>
            </div>

            <div style=""width:200px;
            margin-bottom: 40px;
            margin-top: 50px;"">
            <p style=""top:40%;right:0%; position:relative;"">Choose your confidence for the jar which the beads are drawn from:</p>
            <div style=""width:10px; float: left;"">
            <p><img src=""img/red_jar_piechart.png"" style=""width:30px; top:43px""/></p>
            </div>
            <div style=""width: 25px; float: right;"">
            <p><img src=""img/green_jar_piechart.png"" style=""width:30px; top:43px""/></p>
            </div>
            </div>

            ","true","img/agent_choices_piechart/55.png","img/agent_choices_piechart/65.png","img/bead_samples/0.4.png","html-slider-response","4723","100529","0.0-4723.0","R_3iwM92zaykHHi0f","",""
"614.9000000953674","50","

            <div style=""z-index: -1"">

            <img src=""img/bead_samples/0.5.png""
             style=""position:absolute;
             top:55%;
             left:25%;
             transform: translate(-50%, -50%);
             height:300px;
             width:auto;
             ""/>

            <img src='img/jar_covered_opened.png'
            style=""position:absolute;
            z-index: -1;
            top:50%;
            left:53%;
            height: 600px;
            margin-top:-430px;
            margin-left:-290px""/>

            <img src=""img/faces/2.png""
            style=""position:absolute;
             top:10%;
             left:85%;
             height:200px;
             width:auto;""/>

            <img src=""img/faces/3.png""
            style=""position:absolute;
             top:50%;
             left:85%;
             height:200px;
             width:auto;""/>

             <img src=""img/agent_choices_piechart/30.png""
            style=""position:absolute;
             top:27%;
             left:70%;
             height:30px;
             width:auto;""/>

             <img src=""img/agent_choices_piechart/90.png""
            style=""position:absolute;
             top:67%;
             left:70%;
             height:30px;
             width:auto;""/>
            </div>

            <div style=""width:200px;
            margin-bottom: 40px;
            margin-top: 50px;"">
            <p style=""top:40%;right:0%; position:relative;"">Choose your confidence for the jar which the beads are drawn from:</p>
            <div style=""width:10px; float: left;"">
            <p><img src=""img/red_jar_piechart.png"" style=""width:30px; top:43px""/></p>
            </div>
            <div style=""width: 25px; float: right;"">
            <p><img src=""img/green_jar_piechart.png"" style=""width:30px; top:43px""/></p>
            </div>
            </div>

            ","true","img/agent_choices_piechart/30.png","img/agent_choices_piechart/90.png","img/bead_samples/0.5.png","html-slider-response","4785","101751","0.0-4785.0","R_3iwM92zaykHHi0f","",""
"2225.0999999046326","","

            <img src=""img/red_jar_piechart.png"" alt = ""6-4"" style=""left:46%; top:40% ;width:3%; position:absolute"">
            <img src=""img/green_jar_piechart.png"" alt=""4-6"" style=""left:51%; top:40% ;width:3%; position:absolute"">

            ","true","","","","html-button-response","4786","103980","0.0-4786.0","R_3iwM92zaykHHi0f","1","green"
"1021.3000001907349","50","

            <div style=""z-index: -1"">

            <img src=""img/bead_samples/0.5.png""
             style=""position:absolute;
             top:55%;
             left:25%;
             transform: translate(-50%, -50%);
             height:300px;
             width:auto;
             ""/>

            <img src='img/jar_covered_opened.png'
            style=""position:absolute;
            z-index: -1;
            top:50%;
            left:53%;
            height: 600px;
            margin-top:-430px;
            margin-left:-290px""/>

            <img src=""img/faces/3.png""
            style=""position:absolute;
             top:10%;
             left:85%;
             height:200px;
             width:auto;""/>

            <img src=""img/faces/4.png""
            style=""position:absolute;
             top:50%;
             left:85%;
             height:200px;
             width:auto;""/>

             <img src=""img/agent_choices_piechart/30.png""
            style=""position:absolute;
             top:27%;
             left:70%;
             height:30px;
             width:auto;""/>

             <img src=""img/agent_choices_piechart/40.png""
            style=""position:absolute;
             top:67%;
             left:70%;
             height:30px;
             width:auto;""/>
            </div>

            <div style=""width:200px;
            margin-bottom: 40px;
            margin-top: 50px;"">
            <p style=""top:40%;right:0%; position:relative;"">Choose your confidence for the jar which the beads are drawn from:</p>
            <div style=""width:10px; float: left;"">
            <p><img src=""img/red_jar_piechart.png"" style=""width:30px; top:43px""/></p>
            </div>
            <div style=""width: 25px; float: right;"">
            <p><img src=""img/green_jar_piechart.png"" style=""width:30px; top:43px""/></p>
            </div>
            </div>

            ","true","img/agent_choices_piechart/30.png","img/agent_choices_piechart/40.png","img/bead_samples/0.5.png","html-slider-response","4848","105638","0.0-4848.0","R_3iwM92zaykHHi0f","",""
"471.09999990463257","50","

            <div style=""z-index: -1"">

            <img src=""img/bead_samples/0.7.png""
             style=""position:absolute;
             top:55%;
             left:25%;
             transform: translate(-50%, -50%);
             height:300px;
             width:auto;
             ""/>

            <img src='img/jar_covered_opened.png'
            style=""position:absolute;
            z-index: -1;
            top:50%;
            left:53%;
            height: 600px;
            margin-top:-430px;
            margin-left:-290px""/>

            <img src=""img/faces/4.png""
            style=""position:absolute;
             top:10%;
             left:85%;
             height:200px;
             width:auto;""/>

            <img src=""img/faces/5.png""
            style=""position:absolute;
             top:50%;
             left:85%;
             height:200px;
             width:auto;""/>

             <img src=""img/agent_choices_piechart/45.png""
            style=""position:absolute;
             top:27%;
             left:70%;
             height:30px;
             width:auto;""/>

             <img src=""img/agent_choices_piechart/65.png""
            style=""position:absolute;
             top:67%;
             left:70%;
             height:30px;
             width:auto;""/>
            </div>

            <div style=""width:200px;
            margin-bottom: 40px;
            margin-top: 50px;"">
            <p style=""top:40%;right:0%; position:relative;"">Choose your confidence for the jar which the beads are drawn from:</p>
            <div style=""width:10px; float: left;"">
            <p><img src=""img/red_jar_piechart.png"" style=""width:30px; top:43px""/></p>
            </div>
            <div style=""width: 25px; float: right;"">
            <p><img src=""img/green_jar_piechart.png"" style=""width:30px; top:43px""/></p>
            </div>
            </div>

            ","true","img/agent_choices_piechart/45.png","img/agent_choices_piechart/65.png","img/bead_samples/0.7.png","html-slider-response","4910","106732","0.0-4910.0","R_3iwM92zaykHHi0f","",""
"502.09999990463257","50","

            <div style=""z-index: -1"">

            <img src=""img/bead_samples/0.3.png""
             style=""position:absolute;
             top:55%;
             left:25%;
             transform: translate(-50%, -50%);
             height:300px;
             width:auto;
             ""/>

            <img src='img/jar_covered_opened.png'
            style=""position:absolute;
            z-index: -1;
            top:50%;
            left:53%;
            height: 600px;
            margin-top:-430px;
            margin-left:-290px""/>

            <img src=""img/faces/5.png""
            style=""position:absolute;
             top:10%;
             left:85%;
             height:200px;
             width:auto;""/>

            <img src=""img/faces/6.png""
            style=""position:absolute;
             top:50%;
             left:85%;
             height:200px;
             width:auto;""/>

             <img src=""img/agent_choices_piechart/20.png""
            style=""position:absolute;
             top:27%;
             left:70%;
             height:30px;
             width:auto;""/>

             <img src=""img/agent_choices_piechart/65.png""
            style=""position:absolute;
             top:67%;
             left:70%;
             height:30px;
             width:auto;""/>
            </div>

            <div style=""width:200px;
            margin-bottom: 40px;
            margin-top: 50px;"">
            <p style=""top:40%;right:0%; position:relative;"">Choose your confidence for the jar which the beads are drawn from:</p>
            <div style=""width:10px; float: left;"">
            <p><img src=""img/red_jar_piechart.png"" style=""width:30px; top:43px""/></p>
            </div>
            <div style=""width: 25px; float: right;"">
            <p><img src=""img/green_jar_piechart.png"" style=""width:30px; top:43px""/></p>
            </div>
            </div>

            ","true","img/agent_choices_piechart/20.png","img/agent_choices_piechart/65.png","img/bead_samples/0.3.png","html-slider-response","4972","107841","0.0-4972.0","R_3iwM92zaykHHi0f","",""
"381.2999999523163","50","

            <div style=""z-index: -1"">

            <img src=""img/bead_samples/0.7.png""
             style=""position:absolute;
             top:55%;
